time,seconds_elapsed,z,y,x
1761139830210730800,0.078730712890625,-2.4803379748642445,-0.308788155143708,-1.4692799408793449
1761139830220790000,0.0887900390625,-2.3255858045697213,-0.4018161290615797,-1.6661282086253166
1761139830230847700,0.09884765625,-2.03457222943902,-0.5833985847450792,-1.6451193228662013
1761139830240906800,0.10890673828125,-1.682464426398277,-0.6375900475293398,-1.4479403618611395
1761139830250965200,0.11896533203125,-1.2509773816943168,-0.4179582855671644,-1.1683150267072022
1761139830261024500,0.1290244140625,-0.7507213366687298,-0.18918109411895273,-0.8474316523611545
1761139830271082500,0.13908251953125,-0.29500761320292945,-0.1062995434232056,-0.5277961226517335
1761139830281141500,0.1491416015625,-0.010316226831078528,-0.10035817067548632,-0.2290097215624526
1761139830291200500,0.159200439453125,0.05526303753852844,-0.06896992972120643,0.04833992374446243
1761139830301258200,0.16925830078125,-0.038355157357454296,-0.07343114691376686,0.14199340914953498
1761139830311317500,0.1793173828125,-0.19897885003387927,-0.0475059936709702,0.0016647914070636034
1761139830321376300,0.189376220703125,-0.27873452379405494,-0.060523442284762856,-0.1727855108415708
1761139830331434500,0.1994345703125,-0.1795581102490425,-0.12276523279473185,-0.2808242260823026
1761139830341493200,0.2094931640625,0.047802784660458564,-0.18042948625609279,-0.46241479200702157
1761139830351552500,0.219552490234375,0.2893815900146961,-0.27951836764812465,-0.6799764331642538
1761139830361611300,0.229611328125,0.31169395958781243,-0.453689670292288,-0.7710233893327415
1761139830371669500,0.23966943359375,0.10214403117895125,-0.4493871507927775,-0.749349025402218
1761139830381728500,0.249728515625,-0.022867665368318555,-0.16943638307675718,-0.6306359906077385
1761139830391787500,0.25978759765625,0.020051438903808592,0.023185060754418372,-0.4300128804981708
1761139830401845500,0.269845458984375,0.14696107802689073,0.11585822988525032,-0.14358648702725768
1761139830411904300,0.279904296875,0.2697480842620134,0.2266030622795224,0.10365830819942057
1761139830421963500,0.289963623046875,0.28771453358530996,0.2782027550049126,0.2761570014562458
1761139830432021500,0.300021484375,0.1575502765804529,0.2795696594439447,0.338809564724192
1761139830442080500,0.31008056640625,0.12653379154801367,0.32564985809549685,0.275499633526057
1761139830452139300,0.32013916015625,0.20158581766188144,0.33542028761208054,0.2747172509767115
1761139830462198500,0.330198486328125,0.3589046235740185,0.20461247200667856,0.27395408458448944
1761139830472256500,0.340256591796875,0.5410153409153222,0.07033025828897953,0.20873890428692102
1761139830482315500,0.3503154296875,0.7086439439177513,-0.08401566929221153,0.07734810116179287
1761139830492374500,0.36037451171875,0.8242232107311487,-0.18331512469500302,-0.037836613376066086
1761139830502432300,0.370432373046875,0.8711807767391204,-0.18581044864207505,-0.16072079637534917
1761139830512491500,0.380491455078125,0.7849334028720856,-0.08413169688731431,-0.1991249074410647
1761139830522550300,0.39055029296875,0.5593517925947904,0.02227934408634901,-0.18060893447622656
1761139830532608500,0.4006083984375,0.2866512882679701,0.1312272100612521,-0.04791581658087671
1761139830542667300,0.410667236328125,0.039382162317633626,0.25088965453505513,0.11035444483719765
1761139830552726500,0.4207265625,-0.11425707829892634,0.33015929834395646,0.28152123190313577
1761139830562785300,0.430785400390625,-0.15487082823812962,0.35954292147755623,0.4375687027052045
1761139830572843300,0.44084326171875,-0.15944412750303744,0.32055706500113007,0.531083218031004
1761139830582902500,0.450902587890625,-0.07987199361622332,0.23589403771609066,0.52006154634431
1761139830592961300,0.460961181640625,0.07043196509778499,0.13868132545948028,0.42620165164694185
1761139830603019500,0.47101953125,0.2397247019201517,-0.01354863288104534,0.2410121113821864
1761139830613078300,0.481078369140625,0.4685083231091499,-0.17437573917508123,-0.0029129648372530933
1761139830623137500,0.491137451171875,0.6311030235975981,-0.2951724483758211,-0.2380726238641888
1761139830633195500,0.501195556640625,0.6668535514146089,-0.34291999571770426,-0.3487340888239443
1761139830643254500,0.511254638671875,0.598508329463005,-0.29748627827614543,-0.3789922297697514
1761139830653313300,0.521313232421875,0.49320963364541526,-0.22404022605419158,-0.3609179361578077
1761139830663372500,0.53137255859375,0.43582068999409673,-0.15636895784139632,-0.2534525638256222
1761139830673430500,0.541430419921875,0.34932080267071725,-0.08512421505600214,-0.1422040927581489
1761139830683489300,0.5514892578125,0.3412567386806011,-0.005545359167456626,-0.025838717068359253
1761139830693548500,0.561548583984375,0.4671610001534223,0.03418430141359567,0.0605264379594475
1761139830703606300,0.571606201171875,0.7071814701497554,-0.00850450123399496,0.12001403439044951
1761139830713665500,0.58166552734375,0.9473615146219729,-0.08878916730433702,0.1755610034368932
1761139830723724300,0.591724365234375,1.1567618054270743,-0.2049561708778143,0.14300357257276772
1761139830733782500,0.601782470703125,1.2409662752896546,-0.3515001925364136,0.052381783013790845
1761139830743841500,0.611841552734375,1.177462063628435,-0.4698910096392035,-0.056457069628685706
1761139830753900500,0.621900634765625,1.0778490122318267,-0.5399515110760927,-0.1371375300835818
1761139830763959300,0.631959228515625,0.9409002096533775,-0.561911413949728,-0.188436047905311
1761139830774017300,0.642017333984375,0.8359867137610912,-0.6102750473633408,-0.2536802351016551
1761139830784076500,0.65207666015625,0.8963795154035091,-0.6366226638019085,-0.2599550775874406
1761139830794135300,0.66213525390625,1.0647370172023773,-0.6622364130079745,-0.2400209814529866
1761139830804193500,0.672193603515625,1.1757143431782722,-0.702915044876933,-0.21729067872874439
1761139830814252300,0.682252197265625,0.993307857760787,-0.7482492474667728,-0.06978183062598109
1761139830824311600,0.6923115234375,0.38815292989015576,-0.777937991026789,0.16982428641580044
1761139830834369500,0.70236962890625,-0.13959376412928104,-0.6381320454515517,0.3885144566789269
1761139830844428500,0.712428466796875,-0.4602829310774803,-0.43611017445996403,0.5500684159427881
1761139830854487300,0.7224873046875,-0.5975742634832859,-0.2209390451684594,0.6484088901203126
1761139830864546600,0.732546630859375,-0.5976712941169738,-0.18814678263515233,0.6942255424648522
1761139830874604500,0.7426044921875,-0.47038814550638197,-0.27448884904831644,0.7420622293949127
1761139830884663300,0.752663330078125,-0.32821313271224495,-0.4022713254831731,0.7977459034983069
1761139830894722600,0.76272265625,-0.1563572674036026,-0.5015491535760462,0.8038058611243962
1761139830904780300,0.7727802734375,0.046832478323578834,-0.48584918788000936,0.8152567180085927
1761139830914839600,0.782839599609375,0.21286241395771502,-0.4767873450241983,0.8603862648718058
1761139830924898300,0.792898193359375,0.17460136462450027,-0.5226831270195543,0.8903000493593514
1761139830934956300,0.802956298828125,0.03587736906707287,-0.5512381903745234,0.8901383559916168
1761139830945015600,0.813015625,-0.14456921445429324,-0.535815288054198,0.8308193941257893
1761139830955074300,0.82307421875,-0.2714139716476202,-0.548500143712759,0.7707319321054965
1761139830965133300,0.83313330078125,-0.2877355763733387,-0.5704480638876557,0.6876493789449334
1761139830975191300,0.84319140625,-0.2534445997148752,-0.651825201369822,0.6224683931779116
1761139830985250600,0.85325048828125,-0.15520575928092,-0.6789215903490782,0.6794480253759771
1761139830995309300,0.863309326171875,-0.24950726026594638,-0.5912598196394742,0.9364259868487715
1761139831005367600,0.873367431640625,-0.6601508389055728,-0.41582741101831194,1.2411445544660091
1761139831015426300,0.88342626953125,-0.9692027595520019,-0.1993921070098877,1.4265316631294787
1761139831025485600,0.893485595703125,-1.044153078857064,-0.051637832778692244,1.4097748818568885
1761139831035543600,0.90354345703125,-0.9337053297132253,-0.007474573664367198,1.2420420878276228
1761139831045602300,0.913602294921875,-0.7402256616175175,0.0017158640071749686,0.9997815838195383
1761139831055661300,0.923661376953125,-0.5224444959580898,-0.04330868811160326,0.808730896436423
1761139831065720300,0.93372021484375,-0.2655664146631956,-0.26036007819175716,0.6707055506676435
1761139831075778600,0.943778564453125,-0.009943886387348175,-0.2788791929617524,0.3787728513980284
1761139831085837300,0.95383740234375,0.09411796111166476,-0.25754209816157814,0.340706703582406
1761139831095896600,0.963896484375,0.15015899728536605,-0.26161680025458334,0.49343953341115265
1761139831105954300,0.973954345703125,0.16047697768211364,-0.3590384790867567,0.6810149093665182
1761139831116013600,0.984013671875,0.18870120164752005,-0.4413765705555677,0.6286812032781541
1761139831126072300,0.994072265625,0.2924327942788601,-0.10983166307210922,-0.32846272355914113
1761139831136130300,1.00413037109375,-0.05478899028599262,-0.40836014387756586,0.6891832374487071
1761139831146189600,1.014189453125,-0.2034253080487251,-0.9690770873457193,1.5258368176206945
1761139831156248300,1.024248291015625,-0.22835107499063015,-0.5385919131606817,1.0128428715750575
1761139831166307300,1.034307373046875,-0.4977992995232343,-0.2532218968749046,0.5184687972601503
1761139831176365300,1.044365234375,-0.6418541347146034,-0.49631753653287886,0.6854581525109708
1761139831186424600,1.054424560546875,-0.4985200150132179,-0.6041583180487156,0.7987107299424707
1761139831196483300,1.0644833984375,-0.12341828987598419,-0.45011780315488575,0.5705665757007896
1761139831206541600,1.07454150390625,0.277208921661973,-0.33739801742583514,0.24493472818601875
1761139831216600300,1.084600341796875,0.5943272443860769,-0.3104720165774226,-0.163186601966992
1761139831226659600,1.09465966796875,0.654247752341628,-0.3558320842608809,-0.623269115101546
1761139831236717600,1.104717529296875,0.33960721790790555,-0.3051116585880518,-0.9359593922503292
1761139831246776300,1.1147763671875,-0.112084994956851,-0.1294549396917224,-1.0271745445925742
1761139831256835600,1.124835693359375,-0.4792261164784431,0.004472176977992058,-0.9560859422169625
1761139831266894600,1.13489453125,-0.6892156053483486,0.04773118072897196,-0.8086690101813524
1761139831276952800,1.144952880859375,-0.6255892286121845,0.12887801658660172,-0.6949059990096836
1761139831287011600,1.155011474609375,-0.2944710221081972,0.2539811908096075,-0.5738241892572492
1761139831297070800,1.16507080078125,0.06078267774283885,0.2775119962617755,-0.42747386353984473
1761139831307128600,1.175128662109375,0.26339900749623774,0.3621475510179996,-0.388820161627233
1761139831317187800,1.185187744140625,0.3846002058446407,0.45679099730849265,-0.3863128915140405
1761139831327246600,1.19524658203125,0.25899229696989057,0.45092999632060526,-0.24119397075511514
1761139831337304600,1.2053046875,-0.14755612131059168,0.5503711982816457,-0.10837905311100185
1761139831347363600,1.215363525390625,-0.4060077355325222,0.7704425207048654,-0.144601363158226
1761139831357422600,1.225422607421875,-0.3951122475087642,0.8753747212976217,-0.1573004665378481
1761139831367481600,1.235481689453125,-0.2279693821966648,0.8106476898431777,-0.12310995457917451
1761139831377539600,1.24553955078125,0.14311843112409114,0.7004802189454435,-0.039570962888002395
1761139831387598800,1.255598876953125,0.660732438185811,0.6892419088333844,0.04810571312978863
1761139831397657600,1.26565771484375,1.1107330447018147,0.7685439936071634,0.08374941957145929
1761139831407715600,1.275715576171875,1.371493520388007,0.8302955163821577,0.14066300079599023
1761139831417774600,1.285774658203125,1.4215829546809196,0.8390387948080897,0.20570377437472342
1761139831427833600,1.29583349609375,1.2802625128895044,0.9229846137344837,0.3143453508794308
1761139831437891800,1.305891845703125,1.1302777031272648,1.0720561080440878,0.2192082027878612
1761139831447950600,1.31595068359375,1.0023387209564447,1.0937424546733499,0.09081497404351829
1761139831458009600,1.326009521484375,0.8081751622498035,1.0134040125891566,0.03217215787358582
1761139831468068600,1.336068603515625,0.5171481431156396,0.8374252221316099,-0.050835065028443926
1761139831478126800,1.346126953125,0.17823066103756427,0.7209253333419561,-0.09121573686413466
1761139831488185600,1.356185546875,-0.06290799933373928,0.7578191859751939,-0.07615896444246173
1761139831498244900,1.366244873046875,-0.169575645416975,0.7909057552799582,0.032689386680722236
1761139831508302600,1.376302490234375,-0.16977321381568908,0.6873501037374139,0.18349486517608166
1761139831518361600,1.386361572265625,-0.045104631617665286,0.5256307247787714,0.2434040480200201
1761139831528420600,1.396420654296875,0.1897971801906824,0.39920360847562547,0.22294779117498545
1761139831538478600,1.406478515625,0.4707599014282226,0.31961627701967954,0.14832732487879693
1761139831548537900,1.416537841796875,0.7193938859909772,0.1838935091048479,0.07337558080162852
1761139831558596600,1.4265966796875,0.9042232146412134,0.06862170080542564,-0.003339848479814827
1761139831568655600,1.436655517578125,1.0484089827358722,0.00930266587436199,-0.08796049792785197
1761139831578713600,1.446713623046875,1.0463818608224391,-0.034492344449460505,-0.1386625842263922
1761139831588772900,1.45677294921875,0.9358306513041257,-0.0005967968493700027,-0.10794248832464218
1761139831598831600,1.46683154296875,0.8561912973999977,0.011127835474908351,-0.09494670355338602
1761139831608889600,1.4768896484375,0.8304542140752077,-0.012920271849632263,-0.176607224554196
1761139831618948600,1.486948486328125,0.7418319277703762,-0.10616086560487746,-0.20422643183115868
1761139831629007600,1.497007568359375,0.5051800574243068,-0.17576646288111805,-0.16781152182128278
1761139831639065900,1.50706591796875,0.31446050169169903,-0.1670122246697545,-0.17984887335654348
1761139831649124600,1.51712451171875,0.251745979103446,-0.22289237119331953,-0.2533708403589204
1761139831659183600,1.52718359375,0.3362222516447306,-0.37351562498956914,-0.31784970573857424
1761139831669242600,1.53724267578125,0.5144020592778921,-0.5404299422428012,-0.3639797348812222
1761139831679300900,1.54730078125,0.5996919862896204,-0.7402236157909036,-0.5026832356398925
1761139831689359600,1.557359619140625,0.6023918928980827,-0.8201556690312921,-0.6835765765480697
1761139831699419000,1.5674189453125,0.6447901881664991,-0.8106338074482977,-0.7732092089392244
1761139831709476600,1.5774765625,0.6973433822244406,-0.842188198749721,-0.6671616675157099
1761139831719535600,1.58753564453125,0.568017329609394,-0.8369295475691556,-0.49752713151834904
1761139831729594600,1.5975947265625,0.19713935964703558,-0.7839097589127719,-0.31430202319435774
1761139831739652600,1.607652587890625,-0.1524713658809662,-0.7435179811611771,-0.2909257141841575
1761139831749712000,1.6177119140625,-0.25534721846580505,-0.7971113319218158,-0.33917638874258843
1761139831759770600,1.6277705078125,-0.21183657804131506,-0.8990382132187485,-0.36281072763446715
1761139831769829600,1.63782958984375,-0.15210136352479456,-1.014641445429623,-0.4194759601211175
1761139831779887600,1.6478876953125,-0.12292904505431651,-1.0991769008122383,-0.4612509358594194
1761139831789947000,1.65794677734375,-0.06681435912251472,-1.1505652888745068,-0.45459962474405763
1761139831800005600,1.668005615234375,0.10604922192394733,-1.1467257107116282,-0.3848485911151394
1761139831810063600,1.678063720703125,0.3233949187755584,-1.122651153771579,-0.23294883284335954
1761139831820122600,1.68812255859375,0.3800175542294979,-1.1033104934856295,-0.03372115914756432
1761139831830181600,1.698181640625,0.15526830312311649,-1.0205698125652969,0.14433244655635208
1761139831840239900,1.708239990234375,-0.1522089155524969,-0.8479455932326614,0.194199543335475
1761139831850298600,1.718298583984375,-0.2971709287166595,-0.7547435779221355,0.11713420463781803
1761139831860358000,1.72835791015625,-0.3706237029403448,-0.8077163125663995,0.05749152724295854
1761139831870416600,1.738416748046875,-0.5019377145022154,-0.8776511417970061,0.0028272593151777983
1761139831880474600,1.748474609375,-0.6049789867818355,-0.8874445137977599,-0.07417378197461366
1761139831890533600,1.75853369140625,-0.5876145950049162,-0.8882399019591509,-0.14173369876742362
1761139831900592600,1.768592529296875,-0.47642333401739595,-0.9422973631002008,-0.21211126679684966
1761139831910650600,1.778650634765625,-0.3197936794131994,-1.0074959575891493,-0.23068735418478026
1761139831920709600,1.788709716796875,-0.16932254743874073,-1.0168063683785498,-0.2183440237065777
1761139831930768600,1.7987685546875,-0.1490764627456665,-1.0306571990765632,-0.12302466918220743
1761139831940826600,1.80882666015625,-0.2858697825014591,-0.9752027306191623,-0.03819041351610795
1761139831950886000,1.818885986328125,-0.47367082043886183,-0.8470625267878175,0.04324188821939751
1761139831960944600,1.828944580078125,-0.6792518452167511,-0.8100261969439685,0.07433562147282063
1761139831971002600,1.839002685546875,-0.760872143805027,-0.7624921462222933,0.06260845013158396
1761139831981061600,1.8490615234375,-0.8130489057660102,-0.7476381298311054,0.07060738559677265
1761139831991120600,1.85912060546875,-0.8302905479460955,-0.8139417629525065,0.17789620491880923
1761139832001179600,1.8691796875,-0.8098807971239089,-0.932030236107856,0.3721649045003578
1761139832011237600,1.879237548828125,-0.6024643736124038,-0.9645274612173438,0.5050139436097816
1761139832021296600,1.889296630859375,-0.35244273408353327,-1.0190160072520376,0.521560808458738
1761139832031355600,1.899355712890625,-0.11827332820296287,-1.131388879239559,0.5275025100000202
1761139832041414000,1.909413818359375,0.13190788580179214,-1.2415310695655644,0.48784901992771773
1761139832051472600,1.91947265625,0.3569774549037218,-1.3106010986603795,0.34200353845991194
1761139832061532000,1.929531982421875,0.6030529871553182,-1.2340548884660005,0.041002082536509256
1761139832071589600,1.939589599609375,0.7702706712692976,-1.1102315249204635,-0.4293066684575751
1761139832081648600,1.949648681640625,0.6653378861546516,-0.885174815300107,-0.9373566187623887
1761139832091707600,1.959707763671875,0.41038405092060565,-0.44477512695267796,-1.3249268533937633
1761139832101766700,1.9697666015625,-0.02800093660354614,0.06926964332014322,-1.3796962621964513
1761139832111824600,1.97982470703125,-0.47469665635526176,0.48691827841624613,-1.377997933845967
1761139832121883600,1.989883544921875,-0.6153022278755903,0.8783858858123421,-1.47818513186872
1761139832131942700,1.999942626953125,-0.4995838448524475,1.0580157461233437,-1.2568269845053552
1761139832142000600,2.010000732421875,-0.5559983905136585,0.9304409210897981,-0.7285466220006346
1761139832152060000,2.020059814453125,-0.5205068058937787,0.8064607595473527,-0.2647444490221329
1761139832162118700,2.03011865234375,-0.4681038339614868,0.7276575642064214,-0.03887788432361558
1761139832172176600,2.0401767578125,-0.5425953035831451,0.4360081753902137,-0.061350833019614213
1761139832182235600,2.050235595703125,-0.7272229721814394,0.06274667129218578,-0.06659191201087088
1761139832192294700,2.060294677734375,-0.946052185589075,0.028771190323680636,-0.053770113833341744
1761139832202353700,2.070353759765625,-0.9438877010315656,0.29315891659632326,-0.1060544095557183
1761139832212411600,2.08041162109375,-0.6250842016994953,0.5593656749896705,-0.020473838167497888
1761139832222470700,2.090470703125,-0.2567214294284582,0.7377740306816994,0.08172753095556981
1761139832232529700,2.10052978515625,0.12498597758412361,0.9318084100507199,0.09624411381962708
1761139832242587600,2.110587646484375,0.39003509037494655,1.1341950227014719,0.006478146505542099
1761139832252646700,2.120646728515625,0.3818909468859434,1.2587985768392682,-0.1358063180124387
1761139832262705700,2.13070556640625,-0.003975333371758461,1.2719514884009957,-0.20389104413064196
1761139832272763400,2.140763427734375,-0.6608107641190291,1.2115391052752733,-0.19408030086997896
1761139832282822700,2.15082275390625,-1.2962415877878666,1.1592872322514653,-0.055755223235953597
1761139832292881400,2.16088134765625,-1.7582880214065313,1.235068157161772,0.06969579631034284
1761139832302940700,2.170940673828125,-2.011304166576266,1.4086997999712825,0.21543767127320168
1761139832312998700,2.18099853515625,-1.9734926145762204,1.4699631008379161,0.4484168079232797
1761139832323057700,2.1910576171875,-1.669193441414833,1.3504803968451917,0.6406188938312232
1761139832333116400,2.201116455078125,-1.196078501293063,1.1560441586770116,0.6776727593317627
1761139832343174700,2.211174560546875,-0.6645709934353828,1.057747304445505,0.5870049386739731
1761139832353233700,2.221233642578125,-0.26762100910544395,0.9314609117873013,0.4631729534305632
1761139832363292700,2.231292724609375,-0.04555646703839302,0.799801155527681,0.4121715188592672
1761139832373350700,2.2413505859375,-0.020621932268142698,0.7357837336473166,0.23995734163224697
1761139832383409400,2.251409423828125,-0.05118132118284702,0.6911328371465206,0.025373218448460102
1761139832393468700,2.26146875,-0.0029576807618141173,0.673422846802324,-0.12173824610086158
1761139832403527400,2.27152734375,0.15416180318593978,0.6396091322667896,-0.11217292896863072
1761139832413585700,2.281585693359375,0.4814192426085472,0.6285495397225022,-0.01348104753755033
1761139832423644400,2.29164453125,0.8699410058110952,0.6054308222025633,0.04838900531688705
1761139832433703700,2.30170361328125,1.2063555651575326,0.5801080187670886,-0.014560184543766081
1761139832443761700,2.31176171875,1.4786404744207857,0.4307039315022528,0.01754055206142366
1761139832453820700,2.321820556640625,1.7267916439026594,0.3442041903093457,0.08759802129101008
1761139832463879700,2.331879638671875,1.9497808995991943,0.287671571226418,0.1766032059662044
1761139832473937400,2.3419375,1.9689117165267467,0.22883666655048726,0.28306301798503847
1761139832483996700,2.35199658203125,1.928740449658036,0.18689809774830937,0.28260113609433174
1761139832494055400,2.362055419921875,1.930340870591998,0.183746940241009,0.12672653764113784
1761139832504114700,2.37211474609375,1.9396505507290362,0.1166013033375144,0.012706775229424238
1761139832514172700,2.382172607421875,1.9513655384421347,0.03300502850115299,-0.0680294340007007
1761139832524231700,2.392231689453125,1.9743015928715466,-0.0919018924973905,-0.13843549747224895
1761139832534290400,2.40229052734375,1.958103322264552,-0.15251564341410995,-0.18414306341912595
1761139832544348400,2.412348388671875,1.941100165015459,-0.1491283390633762,-0.17223916553780436
1761139832554407700,2.42240771484375,1.9212813658237455,-0.09701178285703062,-0.07242668257895857
1761139832564466400,2.432466552734375,1.7493033354401588,-0.09722893273904919,0.055283605402521786
1761139832574524700,2.442524658203125,1.333947341325879,-0.15578049042895437,0.11630728882700204
1761139832584583400,2.45258349609375,0.9582675240397452,-0.19525617624893785,0.15265797449424862
1761139832594642700,2.462642578125,0.7177613163530826,-0.25390739492103453,0.15259141206406057
1761139832604701400,2.472701416015625,0.687761899408698,-0.33916751131638884,0.15420030856542288
1761139832614759700,2.482759765625,0.8107160789042711,-0.44900326604172586,0.19675700926594436
1761139832624818700,2.492818603515625,0.8320809384942054,-0.6190209561377763,0.16943857503384352
1761139832634877700,2.502877685546875,0.6588643062263727,-0.7761724426589905,0.1467628885736689
1761139832644935700,2.512935791015625,0.4348363551318645,-0.8064072757944464,0.11723777461014687
1761139832654994400,2.522994384765625,0.26913258271217344,-0.7333211429260671,0.02938519403617829
1761139832665053700,2.5330537109375,-0.00244037888944149,-0.7328824592478573,0.021452592672314495
1761139832675111400,2.543111328125,-0.3908937530308962,-0.7155594223946332,0.003823485544603318
1761139832685170700,2.553170654296875,-0.6919792248427867,-0.7203774902008473,0.014592771639116108
1761139832695229400,2.5632294921875,-0.8931985472798347,-0.7284732645034789,0.03903517551086843
1761139832705287700,2.57328759765625,-0.9979150592952966,-0.7196807401083409,0.0553522319256328
1761139832715346700,2.5833466796875,-0.9746440738230943,-0.7354412038199604,0.12175419258866459
1761139832725405700,2.59340576171875,-0.9278606953382491,-0.6959170026831328,0.2169606795893982
1761139832735464400,2.60346435546875,-0.8389788813143968,-0.6192023040540516,0.3136784844685346
1761139832745522400,2.6135224609375,-0.6830050602704286,-0.6259604000121355,0.3750926650479436
1761139832755581700,2.623581787109375,-0.45516485741138457,-0.6967375252857804,0.4545730289980769
1761139832765640400,2.633640380859375,-0.26384499769806863,-0.7213080490492284,0.524870919387415
1761139832775698700,2.64369873046875,-0.20525310799777507,-0.7033040441945195,0.576922155272588
1761139832785757400,2.65375732421875,-0.2127326500982046,-0.7517633930675685,0.6359484178021549
1761139832795816700,2.663816650390625,-0.32231822945475574,-0.8339141452707349,0.7358335641384124
1761139832805875500,2.67387548828125,-0.49050212825238704,-0.8386151625685393,0.8158744845807552
1761139832815933700,2.68393359375,-0.7054799269288778,-0.8329245497114955,0.8167508290238678
1761139832825992700,2.69399267578125,-1.0053139373749493,-0.7795674919247627,0.7403836286582052
1761139832836051700,2.7040517578125,-1.2846376592338085,-0.7581003410041331,0.6347358271420002
1761139832846109700,2.714109619140625,-1.5222259336471557,-0.6915043008074164,0.5194399438472465
1761139832856168400,2.72416845703125,-1.769297491198778,-0.6577732961192727,0.430621513915807
1761139832866227700,2.734227783203125,-1.9560943205296992,-0.725589818021655,0.44222062016427516
1761139832876285400,2.744285400390625,-2.0008523306667803,-0.8417186815418303,0.45246118794325735
1761139832886344700,2.7543447265625,-1.8894050490915775,-0.8549708156943321,0.3937846156341955
1761139832896403500,2.764403564453125,-1.6259481739282606,-0.7774966770000755,0.3702908177241683
1761139832906461400,2.77446142578125,-1.2063380295008421,-0.7514319691561162,0.3796729420429095
1761139832916520700,2.784520751953125,-0.7438888603001833,-0.7955201172076165,0.4936669124262407
1761139832926579500,2.794579345703125,-0.3557172257095575,-0.7946107472777366,0.5607152629677206
1761139832936638700,2.804638671875,-0.015272387933731079,-0.791877815182507,0.5205498778505251
1761139832946696400,2.814696533203125,0.21899229501485823,-0.6887219766125082,0.45322190665006634
1761139832956755700,2.824755615234375,0.3872761470556259,-0.47108197298943993,0.39610008950233455
1761139832966814500,2.834814453125,0.5851783077687025,-0.19218918989375233,0.23284131734827532
1761139832976872700,2.844872802734375,0.8747750018388032,0.02243555756136775,-0.1262355118543375
1761139832986931500,2.854931396484375,1.0568453871697188,0.11364099222719669,-0.47540191854778674
1761139832996990700,2.86499072265625,1.1409966655403374,0.12973375663310288,-0.781420718576014
1761139833007048700,2.875048583984375,0.9614519992947578,0.20388444999307392,-0.8968672989204526
1761139833017107500,2.885107421875,0.5916057104676962,0.446441452729702,-0.7120213113963604
1761139833027166700,2.895166748046875,0.2919365351945162,0.7482444251611828,-0.36193441972397267
1761139833037225500,2.9052255859375,-0.003415361401438713,0.8873682336911558,0.08928674156293273
1761139833047283700,2.91528369140625,-0.33945524221658707,0.8263483861915767,0.6043178194593638
1761139833057342500,2.925342529296875,-0.6070563775777816,0.9133835494354366,0.9569948006901889
1761139833067401700,2.935401611328125,-0.700028091263771,1.1406661184117197,1.1659522430986164
1761139833077459500,2.94545947265625,-0.5193950452595949,1.308720691741258,1.2289656025029718
1761139833087518700,2.955518798828125,-0.18303367740511894,1.3378876033842564,1.051950893126428
1761139833097577500,2.965577392578125,0.17600480168163776,1.2102867671266198,0.7779375526353717
1761139833107635500,2.975635498046875,0.41625615782439707,0.9337810983631759,0.4944019487025216
1761139833117694700,2.98569482421875,0.5406359862089157,0.7587914650734514,0.084625106427446
1761139833127753500,2.99575341796875,0.5825397759586572,0.7629039418935776,-0.41548024154845625
1761139833137812700,3.005812744140625,0.6280185015857219,0.817770162134245,-0.7492746449917554
1761139833147870500,3.015870361328125,0.6160229433655738,0.8272777029309422,-0.7575023751109838
1761139833157929700,3.0259296875,0.47319911127388475,0.8929897268347442,-0.5280163412736728
1761139833167988500,3.035988525390625,0.20749241135716437,1.0669153110895304,-0.2167750938894227
1761139833178046700,3.046046630859375,-0.06375087989866733,1.3045336153149605,0.07656593780815601
1761139833188105500,3.05610546875,-0.24836744258105753,1.5018246583923696,0.41132516769561916
1761139833198164700,3.066164794921875,-0.44362230365574357,1.639175904291868,0.7584022465601563
1761139833208222700,3.07622265625,-0.6039759472191334,1.677550350871682,1.0365734373830258
1761139833218281500,3.086281494140625,-0.6316863764435052,1.660352401702851,1.1561761875588445
1761139833228340700,3.0963408203125,-0.42142450037300583,1.543600145587325,1.105485061045736
1761139833238399500,3.1063994140625,-0.027453824114799498,1.2821698078155517,0.9429559731394052
1761139833248457700,3.116457763671875,0.4816185645729303,1.005232981093228,0.7828831923440098
1761139833258516700,3.126516845703125,0.9928478390336036,0.7935218560624867,0.6213964530974626
1761139833268576000,3.136575927734375,1.4098685514897107,0.601860343304649,0.43644715132936834
1761139833278633700,3.1466337890625,1.6826304306149482,0.42963834809735413,0.3058658379562199
1761139833288693000,3.15669287109375,1.868327189749479,0.2769762819498777,0.21497246491424737
1761139833298751700,3.166751708984375,2.001041715759039,0.14880692508928478,0.10694814352504908
1761139833308809700,3.176809814453125,2.0476959149062632,0.03485496721677482,0.044979105541855094
1761139833318869000,3.186868896484375,1.9827906042754648,-0.05203742655552923,0.03864778362847864
1761139833328927700,3.196927734375,1.711443268123269,-0.04606083636395633,0.06640059068985282
1761139833338986800,3.20698681640625,1.3895073159843683,0.06124824942797422,-0.04380480106547475
1761139833349044700,3.217044677734375,1.0699737488120793,0.1701709078963846,-0.09356069255508481
1761139833359104000,3.22710400390625,0.7374409993350506,0.2224992802225053,-0.01590659418404102
1761139833369162800,3.237162841796875,0.4891436993807554,0.2825239792048931,0.09556706394143402
1761139833379220700,3.247220703125,0.2730383579790592,0.38974874771423634,0.16916626089848577
1761139833389279700,3.25727978515625,0.05261515337824821,0.390541943918541,0.1693344570722431
1761139833399339000,3.267339111328125,-0.12230769828557968,0.2712499036597088,0.16201302814297378
1761139833409397000,3.27739697265625,-0.32362755848765373,0.07546367565467953,0.19513371891304848
1761139833419455700,3.287455810546875,-0.5790145244419574,-0.14851663690581918,0.15487316632568834
1761139833429515000,3.297514892578125,-0.7732751137822866,-0.28994558057300746,0.08393968144655227
1761139833439573800,3.30757373046875,-0.8751473422825335,-0.32502325062975285,-0.07587875926159322
1761139833449632000,3.317632080078125,-0.83554130808115,-0.4623327032141387,-0.26125819607526063
1761139833459690800,3.327690673828125,-0.6909276699632406,-0.6431986811913549,-0.3605325901020318
1761139833469750000,3.33775,-0.5057879601895809,-0.8517517075173556,-0.43877690945118664
1761139833479807700,3.347807861328125,-0.3309685689002275,-1.0462398220032454,-0.5516035165555775
1761139833489866800,3.35786669921875,-0.16498188788592816,-1.1817696976944803,-0.7002075394839048
1761139833499925800,3.36792578125,-0.022647885137796402,-1.2905840004175901,-0.7998688870016485
1761139833509983700,3.377983642578125,0.011676993790268897,-1.4729996920548378,-0.8595270176939666
1761139833520043000,3.38804296875,-0.048478491964936254,-1.659923362635821,-0.8767855379436165
1761139833530101800,3.398101806640625,-0.1718465129584074,-1.7239932453557847,-0.9300022374115884
1761139833540160800,3.408160888671875,-0.32039690600335596,-1.73271197386235,-1.0049098135534673
1761139833550218800,3.41821875,-0.43061259995698925,-1.7222811807408929,-0.9651567720968276
1761139833560278000,3.428278076171875,-0.5827519574046135,-1.6656825106844304,-0.9376094975449144
1761139833570336800,3.438336669921875,-0.7287941670209169,-1.6174042174667118,-0.9026922056816518
1761139833580394800,3.448394775390625,-0.8841828816533088,-1.55096716722399,-0.9436331417486071
1761139833590453800,3.458453857421875,-0.9749106158047914,-1.4535367205634713,-0.9472789509050548
1761139833600512800,3.4685126953125,-0.9893962372750044,-1.3103152674563228,-0.9011639732010662
1761139833610571000,3.478571044921875,-1.049994790622592,-1.122370729395002,-0.7861402213785796
1761139833620629800,3.488629638671875,-1.0138234070450067,-0.9071733696836978,-0.679274714635685
1761139833630689000,3.49868896484375,-0.8261860352367162,-0.756890746018663,-0.6574927256122232
1761139833640747800,3.508747802734375,-0.543186839735508,-0.7097580426394939,-0.5922444832952692
1761139833650806000,3.518805908203125,-0.212959444591403,-0.752864266981557,-0.5447767758080736
1761139833660864800,3.52886474609375,0.09720832834243774,-0.8003046480704098,-0.4285638872662559
1761139833670924000,3.538924072265625,0.21339783600866793,-0.9245958483234047,-0.31803609515614806
1761139833680981800,3.548981689453125,0.06689560766518116,-1.1736219009436666,-0.31505225703977047
1761139833691040800,3.559040771484375,-0.23615970291495322,-1.2326359615787863,-0.2523825234413147
1761139833701099800,3.569099853515625,-0.5328630141198635,-1.1543903270553797,0.020530491125024853
1761139833711157800,3.57915771484375,-0.7647516155868769,-1.1074495660517365,0.3654683294711634
1761139833721217000,3.589217041015625,-0.8109820363640785,-1.1088223887749016,0.5143173036038875
1761139833731275800,3.59927587890625,-0.5956739828199148,-1.1704449514079838,0.4040900288103148
1761139833741335000,3.6093349609375,-0.19311492643654346,-1.438576175057888,0.2745849298339337
1761139833751392800,3.619392822265625,0.10398878226280212,-1.7135148137003182,0.29841387798245994
1761139833761452000,3.6294521484375,0.3599655308037996,-1.6718091768711805,0.12824614842385054
1761139833771510800,3.6395107421875,0.6106850894689559,-1.4355842997655273,-0.17500399060864
1761139833781568800,3.64956884765625,0.6913526173770427,-1.1502885908249765,-0.50017808441855
1761139833791627800,3.659627685546875,0.46049277443587777,-0.7450194717653096,-0.840559647699818
1761139833801686800,3.669686767578125,-0.3728928169161081,-0.13021890980154274,-0.8866665151625871
1761139833811745000,3.6797451171875,-1.7126035440742968,0.6280504310939461,-0.6255364755116403
1761139833821803800,3.6898037109375,-3.257956670808792,1.3769421411827205,-0.06884465937372297
1761139833831863000,3.699863037109375,-4.588254257455468,1.9819871789380907,0.5874084049083292
1761139833841921800,3.709921875,-5.183512060689925,2.4602187314212323,1.1461566786520183
1761139833851979800,3.719979736328125,-4.940799867391586,2.841742890821397,1.5474080134376882
1761139833862038800,3.730038818359375,-4.00769250357151,2.932122834448516,1.7984417526185512
1761139833872097800,3.740097900390625,-2.6731471963524815,2.837093895971775,1.8328303444325922
1761139833882155800,3.75015576171875,-1.3773299714565277,2.665632875199616,1.5951840562216937
1761139833892214800,3.76021484375,-0.2869844657450914,2.4128886788390576,1.3224499418862163
1761139833902273800,3.770273681640625,0.6141425364464521,2.068299873126298,1.2103835054993628
1761139833912331800,3.780331787109375,1.272926178652048,1.7255346295788883,1.1438337886624037
1761139833922391000,3.79039111328125,1.7106500719189643,1.2401942680038511,1.0451063609939069
1761139833932449800,3.80044970703125,2.072532249999046,0.8258632330231368,0.835631762843579
1761139833942509000,3.810509033203125,2.3181968633621928,0.47524055397361514,0.665025751465559
1761139833952566800,3.82056689453125,2.450409285068512,0.2211111868649721,0.6573936491519212
1761139833962625800,3.830625732421875,2.5165485214084384,0.06763605076894164,0.7431593769818544
1761139833972684800,3.840684814453125,2.380862286111712,-0.12875979703441262,0.8986398615509271
1761139833982742800,3.85074267578125,2.0917261952906845,-0.3187972157217562,1.0513106955267488
1761139833992801800,3.8608017578125,1.7496715842306614,-0.48890726027637715,1.1437013213891536
1761139834002860800,3.87086083984375,1.5798919406741856,-0.5062729672275483,1.1389349837701768
1761139834012919000,3.8809189453125,1.616173214367032,-0.4617714160695672,1.0894283908665179
1761139834022977800,3.890977783203125,1.7460913876563309,-0.4434137754715979,1.007127416537702
1761139834033037000,3.901037109375,1.8853467136114834,-0.4209552754260599,0.7331459324896336
1761139834043095800,3.911095703125,1.864382836037874,-0.33495968436300755,0.3753467494068667
1761139834053153800,3.92115380859375,1.4097685982465744,-0.25371421043649317,0.20741751949004827
1761139834063212800,3.931212890625,0.6813619692385197,-0.06686477413550018,0.22890067169740794
1761139834073271800,3.941271728515625,-0.06688976244628429,0.19348215231373905,0.3445777363294735
1761139834083329800,3.951329833984375,-0.7689981671154499,0.44039179730191824,0.5545552425006404
1761139834093388800,3.961388916015625,-1.3231775255084037,0.6157001411519945,0.8153402315735816
1761139834103447800,3.97144775390625,-1.4837351672112942,0.7770823971107602,1.0185273469522595
1761139834113505800,3.981505859375,-1.3312158705353736,0.9004276217505335,1.1207479504987596
1761139834123565000,3.99156494140625,-0.9173258573204278,0.9935365519501268,1.0460581818260253
1761139834133623800,4.001623779296875,-0.23661913712024688,0.9769221017576754,0.8653484173238277
1761139834143683000,4.01168310546875,0.5444412237107753,0.8414820963069796,0.7153608310826123
1761139834153740800,4.02174072265625,1.2095856331199406,0.7202424656443297,0.4801241612967103
1761139834163799800,4.0317998046875,1.6920517544329166,0.5608320942804217,0.29204806927759197
1761139834173858800,4.04185888671875,1.9421084652751683,0.4090513410121202,0.2212543947279453
1761139834183916800,4.051916748046875,2.0144775359153746,0.3429290558069944,0.22735811843052506
1761139834193975800,4.061975830078125,2.014116885909438,0.3695291857019067,0.2387992211056873
1761139834204034800,4.072034912109375,1.9097247835427522,0.4821091245688498,0.34128826633002607
1761139834214092800,4.0820927734375,1.7311363951086998,0.5792376656733453,0.4432660010313615
1761139834224151800,4.09215185546875,1.6336013190299272,0.6085027769938111,0.5940682646563277
1761139834234210800,4.1022109375,1.5793471662729979,0.5583626354269683,0.8106438173856586
1761139834244269800,4.112269775390625,1.573798299974203,0.4704986201435327,0.8847706184133887
1761139834254327600,4.12232763671875,1.5729308694899082,0.3930030002698302,0.7571478625848889
1761139834264386300,4.13238623046875,1.541940103420615,0.23263006748408077,0.5476457919057458
1761139834274445600,4.142445556640625,1.4242331769287586,0.08588555481731891,0.3764722463054582
1761139834284503600,4.152503662109375,1.2366396442621945,-0.008891893116384744,0.31062180031165476
1761139834294562300,4.162562255859375,0.8814800524353981,-0.045696460030972955,0.2726298137107864
1761139834304621600,4.17262158203125,0.4509405177146196,-0.023253011424094437,0.2809037575919181
1761139834314679300,4.18267919921875,0.10364274530410766,0.058428369701653715,0.2855539214853197
1761139834324738600,4.192738525390625,-0.18585633361041545,0.17816519458591937,0.3624295828297734
1761139834334797300,4.20279736328125,-0.41257016278803343,0.27159678086861966,0.40140195877011864
1761139834344856600,4.212856689453125,-0.5964262624919414,0.3153796623632312,0.37526867920197543
1761139834354914300,4.222914306640625,-0.7102168923228979,0.34215763304308056,0.3557507261203602
1761139834364973300,4.232973388671875,-0.8471247783690691,0.30598347298651934,0.2743152460470795
1761139834375032300,4.2430322265625,-0.865122207352519,0.25647373827770353,0.14825374818593262
1761139834385090300,4.25309033203125,-0.7887123368889093,0.1555567646756768,0.00615910715162754
1761139834395149600,4.263149658203125,-0.6031061786472797,0.06023673429787159,-0.10656305319759994
1761139834405208300,4.273208251953125,-0.2628244224786758,0.0033932957001030443,-0.1458023729784414
1761139834415266600,4.2832666015625,0.0815904879719019,-0.05207520128265023,-0.12205628080777824
1761139834425325300,4.2933251953125,0.351632002222538,-0.05360898672118783,-0.10412150526437908
1761139834435384600,4.303384521484375,0.5321557426333428,0.004330430419743061,-0.08318425996936857
1761139834445443300,4.313443359375,0.538209051322937,0.06536869035884738,-0.03251558275008574
1761139834455501300,4.323501220703125,0.45684769593179225,0.15269275354668496,0.12222992034163326
1761139834465560300,4.333560302734375,0.304081731018424,0.23818667869791388,0.3762738011239096
1761139834475619300,4.343619384765625,0.045131519624590874,0.23069778424724935,0.7033956680007278
1761139834485677600,4.353677490234375,-0.142048171544075,0.14920841856226325,1.0673217729985713
1761139834495736300,4.363736328125,-0.0832020148217678,0.04516396058946848,1.3159582417793572
1761139834505795600,4.373795654296875,-0.043592473489046095,-0.10541823054403066,1.377626031793654
1761139834515853300,4.383853271484375,-0.0725099404156208,-0.2706190218776464,1.3307381700210272
1761139834525912600,4.39391259765625,-0.07681669769883155,-0.3728120067648589,1.2783207311719655
1761139834535971300,4.403971435546875,-0.05888765777647495,-0.42251624113246794,1.1446790073148905
1761139834546030600,4.414030517578125,0.22612112398147582,-0.3577260813139379,0.889894098906964
1761139834556088300,4.42408837890625,0.6072212127506733,-0.20385770811662077,0.48407333731390534
1761139834566147300,4.434147216796875,0.6576257043421269,-0.22748028350546956,0.13524948784727603
1761139834576206300,4.444206298828125,0.15427461591064928,-0.3848610487379133,-0.12027009151075034
1761139834586264300,4.454264404296875,-0.7247890230327845,-0.3237028156809509,-0.4498752265706658
1761139834596323600,4.464323486328125,-1.641604592743516,-0.08524111943393946,-0.818771082805097
1761139834606382300,4.47438232421875,-2.347689499828219,0.16485095498263835,-0.955444283312559
1761139834616440600,4.484440673828125,-2.77706817407608,0.28772373980507254,-0.8298480648756027
1761139834626499300,4.494499267578125,-2.79801217790544,0.24641937725320456,-0.632198198423162
1761139834636558600,4.50455859375,-2.3137276089936494,0.20382468262985348,-0.4179360372027382
1761139834646617300,4.514617431640625,-1.6002537607014178,0.1873642539553344,-0.1255023296084255
1761139834656675300,4.52467529296875,-0.9709826287060975,0.06252221488654613,0.1149899226181209
1761139834666734300,4.534734375,-0.46078035920560356,-0.1307221831485629,0.24059812375381587
1761139834676793300,4.54479345703125,-0.018129530930519104,-0.38606925548389553,0.23752423273380843
1761139834686851600,4.5548515625,0.4125198939055204,-0.6613328882969916,0.18524258562624454
1761139834696910300,4.564910400390625,0.7292576928794383,-0.8921719807110726,-0.04278599767806008
1761139834706969600,4.574969482421875,0.9230833979338406,-1.0405810655891894,-0.3425088941661641
1761139834717027300,4.58502734375,1.042197268614173,-1.094044067968428,-0.6222691442787647
1761139834727086600,4.595086669921875,1.0897627373874186,-1.1144649247065186,-0.7950866942264139
1761139834737145300,4.605145263671875,0.9888649068772792,-1.053633147124946,-0.8121156435038894
1761139834747203300,4.615203369140625,0.7392822432875633,-0.9265583805680274,-0.7848334496289491
1761139834757262600,4.6252626953125,0.29614801540970803,-0.8706805721320211,-0.7307637135282159
1761139834767321300,4.6353212890625,-0.32133973981142044,-0.9493182016476989,-0.6787259216465056
1761139834777380400,4.64538037109375,-0.8970967237621545,-1.0419738351218402,-0.5842337203949689
1761139834787438300,4.655438232421875,-1.3483733415633439,-1.0811764030888675,-0.4991201728634536
1761139834797497600,4.66549755859375,-1.5970412283957003,-1.033637676192075,-0.5051749428577721
1761139834807556400,4.675556396484375,-1.499673910099268,-0.9489088901944458,-0.5762654449295253
1761139834817614300,4.6856142578125,-0.9382271910518407,-0.8315952008038758,-0.73789897223562
1761139834827673300,4.69567333984375,-0.14657295549213886,-0.7590006508447229,-0.9360909096755087
1761139834837732400,4.705732421875,0.4114841211169958,-0.7037815985783934,-1.0371091516949236
1761139834847791400,4.715791259765625,0.6798737765073776,-0.5431070524975657,-1.1125647171083837
1761139834857849300,4.725849365234375,0.6858101808190346,-0.32983123543336984,-0.9576041647601872
1761139834867908400,4.735908447265625,0.3213502612054348,-0.04847103931084275,-0.4904819622471928
1761139834877967400,4.74596728515625,-0.22323183228075502,0.18489903288558124,0.019435170168988405
1761139834888025600,4.756025634765625,-0.7712485763907432,0.37683161766976114,0.5443897857844829
1761139834898084400,4.76608447265625,-1.16169341661036,0.6280052037127316,0.9887410613019019
1761139834908143600,4.7761435546875,-1.2836533243715762,0.7800624358348548,1.2731301767915486
1761139834918201300,4.786201416015625,-1.0843056410253047,0.7664525742858648,1.3092895776703952
1761139834928260400,4.79626025390625,-0.6610024872988463,0.6748689539574086,1.1079952172357588
1761139834938319400,4.8063193359375,-0.18844518105983732,0.4849016778968274,0.7242514090247452
1761139834948377300,4.81637744140625,0.04256254591941833,0.3474637766271829,0.31301267750356343
1761139834958436600,4.8264365234375,0.10078852491676807,0.28049583437815306,-0.05322723912829533
1761139834968495400,4.836495361328125,-0.07671089923679829,0.2213710068449378,-0.24228096227422355
1761139834978554400,4.846554443359375,-0.6510995174437761,0.1776211508370936,-0.25099176320265976
1761139834988612400,4.8566123046875,-1.549430166915059,0.18512027442082762,-0.1448570640855003
1761139834998671600,4.866671630859375,-2.439271220460534,0.32741175320148463,0.03430051852165488
1761139835008730400,4.87673046875,-3.0516601912379264,0.45497766427621245,0.14711953825792295
1761139835018788400,4.886788330078125,-3.1941502613306043,0.5111690687060356,0.2289977936626412
1761139835028847400,4.896847412109375,-2.929114592543244,0.5482808018736541,0.299475789859239
1761139835038906400,4.90690625,-2.4147657247573138,0.5272831681609154,0.34216771604567764
1761139835048965400,4.91696533203125,-1.6377338887900112,0.43031537057608366,0.2705149404486641
1761139835059023400,4.9270234375,-0.7459633284866809,0.33605624742805956,0.18271186157222835
1761139835069082600,4.93708251953125,-0.010251344901323317,0.3114011141210794,0.10914046593755483
1761139835079141400,4.947141357421875,0.4905471364378929,0.2574984051503241,0.07769035699451342
1761139835089199600,4.95719970703125,0.8840338285714388,0.1974398038983345,0.08149773165453225
1761139835099258400,4.96725830078125,1.2348323025792836,0.157922178632766,0.19537593017108737
1761139835109317600,4.977317626953125,1.4892419479340313,0.1367810447961092,0.30989107488431034
1761139835119375400,4.987375244140625,1.7618892607688903,0.16439941182285547,0.34259726656936107
1761139835129434400,4.997434326171875,2.016209474274516,0.24587562576532362,0.3781005050944164
1761139835139493400,5.007493408203125,2.224925874468684,0.2791033571064472,0.49000605183113366
1761139835149552400,5.017552490234375,2.327920969519019,0.2899354245051741,0.5782993253773078
1761139835159610600,5.027610595703125,2.2487410498201847,0.3329673415020108,0.6316572234142571
1761139835169669400,5.03766943359375,1.9723849455952642,0.3416246952101588,0.7281299309585243
1761139835179728400,5.047728271484375,1.7032722366273403,0.34157705667614935,0.7394052851453423
1761139835189786400,5.057786376953125,1.5037182170540093,0.3377341175124049,0.6217918821558356
1761139835199845400,5.067845458984375,1.403899998474121,0.25935733088999985,0.3861421015243977
1761139835209904400,5.077904296875,1.4355185410529374,0.10228285512775181,0.14251027263049035
1761139835219962400,5.08796240234375,1.5856220087587833,-0.061763213212788104,-0.15820242034625262
1761139835230021400,5.098021484375,1.6903636552155017,-0.1788844487711787,-0.45604043466951694
1761139835240080400,5.108080322265625,1.605029889062047,-0.2900938299372792,-0.7210972558427602
1761139835250139400,5.118139404296875,1.272127721750736,-0.3786386670917272,-0.8302742543984204
1761139835260198000,5.128197998046875,0.7234434536427259,-0.3268842221960425,-0.740250796058774
1761139835270256600,5.138256591796875,0.34554245317578314,-0.14074468773007393,-0.6007720366112888
1761139835280316000,5.14831591796875,0.19532792631089685,0.00677607000619173,-0.45319757592640814
1761139835290374000,5.158373779296875,0.20403321081399917,0.09940174673348665,-0.2634299140911549
1761139835300433000,5.168432861328125,0.2773790175318718,0.12023001522868872,-0.1984389344708994
1761139835310492000,5.178491943359375,0.3571726852148771,0.0844806564554572,-0.27618275695201006
1761139835320549600,5.188549560546875,0.33314591293931006,0.041866088087856766,-0.4675931079603731
1761139835330609000,5.19860888671875,0.2040963391780853,0.004337736943364143,-0.632022476530075
1761139835340667600,5.208667724609375,0.0741132839590311,-0.02623158884346485,-0.6883626417808234
1761139835350727000,5.218726806640625,0.017638532543182373,-0.013834464085102081,-0.7272554862115532
1761139835360785000,5.228784912109375,-0.03827916951179504,-0.011673486658930778,-0.6349998849056661
1761139835370844000,5.238843994140625,-0.20888065084517002,-0.00175327340811491,-0.30519849662128834
1761139835380902700,5.248902587890625,-0.4699520921766758,0.16674860529750585,-0.02840739851258695
1761139835390961000,5.2589609375,-0.6473702677875757,0.37233635207712645,0.1989939745377749
1761139835401020000,5.26902001953125,-0.818381498965621,0.3388371103182435,0.35356735419929025
1761139835411079000,5.279078857421875,-0.9263362622499466,0.20790625285506248,0.4904743269300088
1761139835421137000,5.289136962890625,-0.864338948020339,-0.12000555882304906,0.6580480214074254
1761139835431195600,5.299195556640625,-0.6271171688318252,-0.508956361092627,0.694931060385704
1761139835441255000,5.3092548828125,-0.3703524847835302,-0.698713209272921,0.6213786251798272
1761139835451313700,5.319313720703125,-0.14088029680848121,-0.8764411814853549,0.660905383599922
1761139835461372000,5.329371826171875,0.11539748050570488,-1.052745550635457,0.8916634466670453
1761139835471430700,5.3394306640625,0.43051264671385286,-1.1412728521332145,1.1916374501056968
1761139835481490000,5.349489990234375,0.7959212453544139,-1.1421358987033365,1.412354230825603
1761139835491548000,5.3595478515625,1.1851952882289887,-1.0262877518206834,1.4666910934299229
1761139835501607000,5.36960693359375,1.4407202013492584,-0.7579521647050976,1.4127357774890958
1761139835511666000,5.379666015625,1.4800690459191799,-0.4591454514801502,1.2611051002159714
1761139835521723600,5.3897236328125,1.2266232771605252,-0.1371294198423624,1.079841208962351
1761139835531783000,5.399782958984375,0.5874123504310846,0.20030162307024002,1.0058192565485835
1761139835541841700,5.409841552734375,-0.19393793325722217,0.6060010233059525,0.8906927019387483
1761139835551901000,5.41990087890625,-0.8193687564373016,0.99566143514961,0.7034146649621427
1761139835561959000,5.429958984375,-1.270238547003269,1.3335878603637217,0.5511201169528067
1761139835572018000,5.440017822265625,-1.5558148995161056,1.5392580247297882,0.5582049971798434
1761139835582076700,5.45007666015625,-1.64417064383924,1.5643880820721388,0.6873756765700876
1761139835592135000,5.460135009765625,-1.5007581982046365,1.5127309600710868,0.8793789885029196
1761139835602194000,5.47019384765625,-1.2044979545921086,1.469227626170218,1.033749977460131
1761139835612253000,5.4802529296875,-0.8422007659703492,1.4148738124310969,1.1472346100818365
1761139835622311000,5.490310791015625,-0.43721477470099923,1.3428607156217098,1.314993342269957
1761139835632369700,5.50036962890625,-0.12112637954652308,1.2519333672448991,1.5156743200466036
1761139835642429000,5.510428955078125,0.09000468057394027,1.220021686938405,1.637072210010886
1761139835652487000,5.52048681640625,0.3523591474533081,1.3341411103323102,1.6800488896891475
1761139835662546000,5.5305458984375,0.6962988416075706,1.5108108056634664,1.6699416294336318
1761139835672604700,5.540604736328125,1.1012743114829062,1.6116677196413278,1.6408225024551153
1761139835682664000,5.550663818359375,1.5336089129269121,1.6853607323616742,1.6183593262344598
1761139835692722000,5.560721923828125,1.9288216982007025,1.7392852147728204,1.5115293291963636
1761139835702780700,5.57078076171875,2.079189369800687,1.6706740353614091,1.2902487771138549
1761139835712840000,5.58083984375,1.8692028035402297,1.5351128877490758,0.8475164811003952
1761139835722897700,5.590897705078125,1.5302034883975981,1.375519999425113,0.351220644942671
1761139835732957000,5.60095703125,1.0796586920022964,1.1254784861519933,0.09178243083618581
1761139835743015700,5.611015625,0.43069443302154536,0.9422750051379203,-0.021767887432873247
1761139835753074000,5.621073974609375,-0.08896247804462909,1.0986179517552257,-0.1614305520799011
1761139835763133000,5.6311328125,-0.3154594496011734,1.4815440869078038,-0.22293774470500646
1761139835773192000,5.64119189453125,-0.4265419895172119,1.7327420767396688,-0.052382952057570216
1761139835783250700,5.651250732421875,-0.6582891366869211,1.7080214769810438,0.2102292889751494
1761139835793308700,5.66130859375,-0.8263882798105477,1.7446651542454956,0.3607738149793818
1761139835803368000,5.671367919921875,-0.7858189535349607,1.8889774713292717,0.42527386927753685
1761139835813426700,5.6814267578125,-0.6678729575902224,1.9345944363832472,0.5068380537644028
1761139835823485000,5.69148486328125,-0.4429939426243305,1.8917098189026116,0.5701862346136942
1761139835833543700,5.701543701171875,-0.1653805318146944,1.7410419953122733,0.5284001529594883
1761139835843603000,5.71160302734375,0.13339841662049293,1.475441970640421,0.4646644340973347
1761139835853661000,5.721660888671875,0.4845008420109749,1.2202011351585387,0.3882502527847886
1761139835863720000,5.731719970703125,0.7363952896744013,1.023169912061095,0.2777634137395769
1761139835873779000,5.741779052734375,0.9185714734673499,0.8191916463047265,0.20435542850568889
1761139835883838000,5.751837890625,1.016717374920845,0.6547910654380917,0.09248824101798236
1761139835893896000,5.76189599609375,1.0834335343658923,0.4973892574176192,-0.009576441314443945
1761139835903954700,5.77195458984375,1.1820067213207484,0.421610670594871,-0.013901976363360881
1761139835914014000,5.782013916015625,1.2417279073119163,0.3642033145040273,0.1631231082767248
1761139835924071700,5.79207177734375,1.1821388232678174,0.28405951820909975,0.35415129156708713
1761139835934131000,5.802130859375,1.08476215262115,0.2566927878558636,0.45540538816899057
1761139835944189700,5.812189697265625,1.0409282715916632,0.18138474115431308,0.46364663535691797
1761139835954248000,5.822248046875,1.0168997457504272,0.05774784009158611,0.4371406134862452
1761139835964307000,5.832306884765625,0.9605874914199113,-0.13590309291779995,0.29388861911036074
1761139835974366000,5.842365966796875,0.867326439398527,-0.38217765487283467,0.11136040700934827
1761139835984424700,5.8524248046875,0.6806079360008239,-0.6193693311840296,-0.1570290291853249
1761139835994482700,5.862482666015625,0.3186106071084738,-0.8006310304805636,-0.31359402105547485
1761139836004542000,5.8725419921875,-0.12705752316117286,-0.8621160112738608,-0.4026905007433146
1761139836014600700,5.8826005859375,-0.4998614927500486,-0.8385752689495682,-0.48397988687679167
1761139836024659000,5.892658935546875,-0.7471721197545528,-0.7932686850190163,-0.5772220150019973
1761139836034717700,5.9027177734375,-0.8826187010765075,-0.8431137891620397,-0.6472367776010185
1761139836044777000,5.91277685546875,-0.8638333365857601,-0.806786630500853,-0.5888569232162087
1761139836054835000,5.9228349609375,-0.7630278605341911,-0.7791530659049749,-0.4596860611628741
1761139836064894000,5.93289404296875,-0.674408496838808,-0.727727122311294,-0.37183380938246846
1761139836074953000,5.942952880859375,-0.5866705921530723,-0.6196729903057218,-0.404964144763723
1761139836085010700,5.9530107421875,-0.551222846674919,-0.477667196598649,-0.4428047036625445
1761139836095070000,5.963070068359375,-0.5069844764977693,-0.403247915430367,-0.47479376005418594
1761139836105128700,5.973128662109375,-0.4422100987702608,-0.41231648028790946,-0.4859132660921663
1761139836115188000,5.98318798828125,-0.42610301357805724,-0.4113698470875621,-0.5151354881189764
1761139836125245700,5.99324560546875,-0.48030455936491484,-0.4336006758570671,-0.5075851458046585
1761139836135305000,6.003304931640625,-0.6361123761922121,-0.4936149995759129,-0.4865174790630117
1761139836145363700,6.01336376953125,-0.8603998550057411,-0.5563076025933027,-0.5156437299020588
1761139836155421700,6.023421630859375,-0.9794704710662364,-0.5954942423388362,-0.5037556506443769
1761139836165481000,6.03348095703125,-0.9557599251329898,-0.676984923198074,-0.4249014557685703
1761139836175539700,6.043539794921875,-0.8015174579262733,-0.7563337697230279,-0.359611127875559
1761139836185598000,6.053597900390625,-0.598202624514699,-0.8471050507552921,-0.30046887428350744
1761139836195656700,6.06365673828125,-0.3127747405618429,-0.9709889123164117,-0.24862583778891711
1761139836205716000,6.073716064453125,-0.005454758274555206,-1.1421182169161737,-0.21406470241956413
1761139836215774700,6.083774658203125,0.28363749340474603,-1.3014068615965544,-0.14626023628115653
1761139836225833000,6.0938330078125,0.5424789837270975,-1.4157517643094062,-0.09836495103165507
1761139836235891700,6.1038916015625,0.7555033102482557,-1.498219035115838,-0.04423088099043816
1761139836245951000,6.113950927734375,0.9263619812130928,-1.5153585320957004,0.01259472968969494
1761139836256008400,6.124008544921875,1.0773761340230703,-1.4291139347076416,0.08211670380309223
1761139836266067200,6.134067138671875,1.1677630919128656,-1.2765548905432222,0.15163129832763225
1761139836276126500,6.14412646484375,1.241491760468483,-1.1612006646573543,0.21733908444773403
1761139836286184200,6.15418408203125,1.3286872288405895,-1.127478135536611,0.3227719280390069
1761139836296243500,6.164243408203125,1.4220248532295225,-1.0117428013786673,0.4758780116269365
1761139836306302200,6.17430224609375,1.4775573553591965,-0.8376628302797675,0.6761567287456244
1761139836316360200,6.184360107421875,1.4248703057885168,-0.6950199077129363,0.9852660786677151
1761139836326419500,6.19441943359375,1.2720032185882328,-0.5071732770681381,1.328011959927529
1761139836336478200,6.204478271484375,1.140669333282113,-0.42401919304132457,1.72515878200382
1761139836346537500,6.214537353515625,1.2957096728682518,-0.3523626545846462,2.096304901383072
1761139836356595200,6.22459521484375,1.6317787797778844,-0.18671090461313725,2.2412201527960596
1761139836366654500,6.234654541015625,1.9922709648042916,0.01396042855232954,1.9196898588486015
1761139836376713200,6.244713134765625,2.2215029142826794,0.1357894034102559,1.4111198667250573
1761139836386771500,6.254771484375,2.0343419278144834,-0.04119330339282751,1.021422483871877
1761139836396830200,6.264830322265625,1.2662725659817455,-0.29820056402534245,0.6714974316976964
1761139836406889500,6.274889404296875,-0.020073650735616684,-0.4853425535321235,0.3127762018665671
1761139836416947500,6.284947509765625,-1.6524363678812979,-0.4509247356235981,-0.18360541287846863
1761139836427006200,6.295006103515625,-3.448423713085055,-0.26828385692834855,-0.8598586608011275
1761139836437065500,6.3050654296875,-4.974162623289227,-0.07541209159791469,-1.380471776613593
1761139836447124200,6.315124267578125,-6.03683744726479,0.02717792978286743,-1.6583749641500412
1761139836457182500,6.325182373046875,-6.564258562591672,0.09464110820293425,-1.5670296826221048
1761139836467241200,6.3352412109375,-6.683257866981625,0.18811112679988146,-1.1930017241962254
1761139836477300500,6.345300537109375,-6.3956462092489,0.3236915636345744,-0.8339359187111258
1761139836487358200,6.355358154296875,-5.56939178495109,0.4593146705672145,-0.47428734490200875
1761139836497417500,6.36541748046875,-4.221602380755543,0.7141881340414286,-0.03526186751723289
1761139836507476200,6.375476318359375,-2.8656816925525663,0.8200491399168968,0.3138954151548445
1761139836517534200,6.3855341796875,-1.6342144824922085,0.6249632056683302,0.5306536675073206
1761139836527593500,6.395593505859375,-0.5230974069088697,0.3524471179977059,0.578878184711188
1761139836537652200,6.40565234375,0.32341303895413875,0.1429337222069502,0.4737236466046422
1761139836547710500,6.41571044921875,0.9012427375257015,0.041753275363147255,0.338513942778483
1761139836557769200,6.425769287109375,1.11029406876266,-0.03318944515734911,0.22245763303786514
1761139836567828500,6.435828369140625,1.0844009180933236,-0.01842851387709379,0.007029460245370865
1761139836577887200,6.44588720703125,1.0439672008961438,0.030281741017103195,-0.2855236724775284
1761139836587945500,6.455945556640625,1.1585773304164408,0.027471067510545254,-0.5883077649008482
1761139836598004200,6.466004150390625,1.3507932621866463,-0.0396992654427886,-0.8525175042580813
1761139836608063500,6.4760634765625,1.343508950397372,-0.16922025610804556,-0.9539887507420033
1761139836618121500,6.48612158203125,1.1111468861997127,-0.19014643201977013,-0.9277511705491691
1761139836628180200,6.49618017578125,0.9343360288321971,-0.07049509346187115,-1.0055059528157115
1761139836638239500,6.506239501953125,0.914307970803976,0.07186345920562744,-1.1417905193317681
1761139836648297200,6.516297119140625,1.0128349805295467,0.15821663153469562,-1.1662721227027475
1761139836658356500,6.5263564453125,1.1074375102877616,0.18835662599354983,-1.084354229407385
1761139836668415200,6.536415283203125,1.1143892291218043,0.25616876398175953,-0.8553839996051043
1761139836678474500,6.546474609375,0.9677636666595936,0.43148587566018104,-0.5638904589377344
1761139836688532500,6.556532470703125,0.8023340350061654,0.6634931350708008,-0.280667026226595
1761139836698591200,6.56659130859375,0.6700643301546573,0.8479784725889563,-0.021157062058150766
1761139836708650200,6.576650146484375,0.6465946072399615,0.9122118753075599,0.21710275494121015
1761139836718708200,6.586708251953125,0.7885071697056293,0.9145616533041,0.3851105665195733
1761139836728767500,6.596767578125,1.08407183226943,0.8114554990947246,0.4753817160099745
1761139836738826200,6.606826171875,1.374596747100353,0.6414759490519761,0.46917226691059766
1761139836748884500,6.616884521484375,1.6267115595161914,0.44486908884644505,0.36895723103284833
1761139836758943200,6.626943115234375,1.8975497771024703,0.27388591471910473,0.21493797812275586
1761139836769002500,6.63700244140625,2.170311071705818,0.17878011161386967,0.12495638616345822
1761139836779061200,6.647061279296875,2.347496023082733,0.10322393537014722,0.15371237891800701
1761139836789119200,6.657119140625,2.346852464482188,0.006565934386849403,0.1659341471094638
1761139836799178200,6.66717822265625,2.270622042238712,-0.04285889851748943,0.19586166786141693
1761139836809237200,6.6772373046875,2.1133236945927143,-0.05101122531294822,0.25571930318120867
1761139836819295500,6.68729541015625,1.760108807092905,-0.036306700395047665,0.35337840749844907
1761139836829354200,6.697354248046875,1.3058511276543139,0.002717442265152931,0.4602747477710247
1761139836839413500,6.70741357421875,0.9507885664612055,0.050536301277577876,0.5390776143183932
1761139836849471200,6.71747119140625,0.6117974346250296,0.09122750036716461,0.5894959517721087
1761139836859530500,6.727530517578125,0.34728666649460793,0.155640351305902,0.676037705475837
1761139836869589200,6.73758935546875,0.2268020919829607,0.21588716860637067,0.7441583248913287
1761139836879647200,6.747647216796875,0.1421574771374464,0.19416735809892416,0.7484755305033177
1761139836889706500,6.75770654296875,-0.038330022916197776,0.11180500897169113,0.7347580438613891
1761139836899765200,6.76776513671875,-0.28601532845199107,0.04362812932431698,0.7190928572177887
1761139836909824300,6.77782421875,-0.48875791493356224,0.024562924978882072,0.6227730752129107
1761139836919882200,6.78788232421875,-0.549781415694952,0.01983195093423128,0.5289522338842972
1761139836929941500,6.79794140625,-0.5728881505161524,-0.00872545050829649,0.4800394056227058
1761139836940000300,6.808000244140625,-0.6508183624148368,-0.08044394828528165,0.5345488483149557
1761139836950058500,6.81805859375,-0.7307844640552997,-0.13578355819135904,0.5784389895763248
1761139836960117200,6.8281171875,-0.7791688479959964,-0.19650997570231557,0.6101356388926505
1761139836970176500,6.838176513671875,-0.7816834611654281,-0.27878391589373347,0.6556188945643603
1761139836980234500,6.848234375,-0.6785808140873909,-0.3279848769143224,0.6747705350842327
1761139836990293200,6.858293212890625,-0.5113309812694787,-0.4211928835742175,0.5977486702021211
1761139837000352300,6.868352294921875,-0.30831600758731365,-0.4991141815140843,0.5008955850381404
1761139837010411300,6.878411376953125,-0.1157230591982603,-0.5740785293444991,0.3252984143093228
1761139837020469500,6.888469482421875,0.14495207629203796,-0.5726892669431864,0.20926522971596567
1761139837030528300,6.8985283203125,0.3951625163912773,-0.5638190011367201,0.11601900993753224
1761139837040587500,6.90858740234375,0.6011667350172997,-0.5232398841194809,-0.017816921317391095
1761139837050645200,6.918645263671875,0.7327034494191408,-0.49496933679431676,-0.143409157698974
1761139837060704300,6.928704345703125,0.6407914739191531,-0.5286189468093216,-0.1870455433949828
1761139837070763300,6.93876318359375,0.2902665561556816,-0.4661893786422908,-0.09858580897441133
1761139837080821200,6.9488212890625,-0.2593739897638559,-0.26956410599723457,-0.012165124367084354
1761139837090880500,6.958880615234375,-0.6602770956337451,-0.056896045567840337,-0.03650726446844637
1761139837100939300,6.968939208984375,-0.8734943143784999,0.0870534295529127,-0.14589845376405863
1761139837110997500,6.97899755859375,-1.0391302822589874,0.14413798343017697,-0.292599474348966
1761139837121056300,6.98905615234375,-1.256842474335432,0.07088102403953671,-0.42582346598431464
1761139837131115500,6.999115478515625,-1.539045551022887,-0.07920943805426359,-0.5888976205527782
1761139837141174300,7.00917431640625,-1.763625875303149,-0.23454101567193864,-0.6080621570868417
1761139837151232300,7.019232177734375,-1.9366437701284884,-0.4338201638266444,-0.485409262092784
1761139837161291300,7.029291259765625,-1.9567565838307142,-0.6771713856808841,-0.31658721152208746
1761139837171350300,7.039350341796875,-1.7982675650954245,-0.8666877031035721,-0.2880182475059293
1761139837181408500,7.049408447265625,-1.5977052452623843,-1.016610991936922,-0.273973337274231
1761139837191467300,7.05946728515625,-1.4796113652795553,-1.2236029064260423,-0.2907525313080288
1761139837201526500,7.069526611328125,-1.4462515319913625,-1.4309345742635429,-0.36745325621068475
1761139837211584300,7.079584228515625,-1.3832412413269282,-1.6721093288615345,-0.5377639379039406
1761139837221643500,7.0896435546875,-1.1598124251693487,-1.8258615283332764,-0.8335915622528642
1761139837231702300,7.099702392578125,-0.7361462833493948,-1.7142621249362826,-1.1549712687484919
1761139837241761500,7.109761474609375,-0.31069851880967614,-1.4144097020506858,-1.324821785584092
1761139837251819300,7.1198193359375,-0.12787702285051344,-1.0358562290243805,-1.258477966582775
1761139837261878500,7.12987841796875,-0.19466624753177164,-0.6389440924867987,-1.044811835026741
1761139837271937500,7.1399375,-0.29436931529939175,-0.26751243416443465,-0.7959078744161874
1761139837281995500,7.14999560546875,-0.3754506847053766,0.08650091023668646,-0.35497141231093554
1761139837292054500,7.160054443359375,-0.3269254309892654,0.40604061488881704,0.049993353507295245
1761139837302113500,7.170113525390625,-0.08217208725214004,0.7197068974629044,0.2008523888207972
1761139837312171800,7.180171875,0.465908369743824,0.9123397394709288,0.031259828801639376
1761139837322230500,7.19023046875,1.134932835456729,0.8947723724678158,-0.24492672754265365
1761139837332289800,7.200289794921875,1.5932552801162003,0.7542106400892138,-0.33714711140468717
1761139837342348500,7.2103486328125,1.7977677988797425,0.6971940368816256,-0.2858879026800394
1761139837352406500,7.220406494140625,1.7060329335123299,0.8123179611429572,-0.04000248617306351
1761139837362465500,7.230465576171875,1.2562211275666952,1.0298606418713927,0.4078576011829078
1761139837372524500,7.240524658203125,0.7740045971006154,1.2932055810928345,0.9326812473624944
1761139837382582800,7.250582763671875,0.5551590170800685,1.5500149810656905,1.454728560696542
1761139837392641500,7.2606416015625,0.5686807619541883,1.7066665552407503,1.9002876776337623
1761139837402700500,7.270700439453125,0.8013900321543216,1.6249483492359518,2.244206328999996
1761139837412758500,7.280758544921875,1.1564467481285332,1.4579665197044611,2.4083989662043748
1761139837422817800,7.29081787109375,1.5067033703446386,1.1637924347162245,2.491782036681473
1761139837432876500,7.30087646484375,1.8504373127937315,0.7575035441547632,2.638830208469927
1761139837442934500,7.3109345703125,2.1898896324008703,0.48855216322839257,2.7133810070633886
1761139837452993500,7.32099365234375,2.4207839621335268,0.295991363543272,2.6310484685525295
1761139837463052500,7.331052490234375,2.4909657518625257,0.11372487111836671,2.3746178387641907
1761139837473111600,7.341111572265625,2.4007956515938043,0.0327411168679595,2.085704743044078
1761139837483169500,7.35116943359375,2.0578350316047667,0.04201309534311294,1.7352862082645295
1761139837493228800,7.361228759765625,1.3788327772349118,0.08881459400653839,1.46763831115216
1761139837503287600,7.37128759765625,0.23106968629956243,0.10193448008149862,1.3949686501301823
1761139837513345500,7.381345458984375,-1.1775205158174038,0.15696517016887665,1.3575365989670156
1761139837523404500,7.391404541015625,-2.6455361358493565,0.32051877881735563,1.1376293810643254
1761139837533463600,7.401463623046875,-4.102617104890943,0.5201636915445328,0.9783188168130814
1761139837543521500,7.411521484375,-5.123436654433608,0.6809006353370844,1.0239159811880438
1761139837553580500,7.42158056640625,-5.432444151416421,0.8605746270507574,1.1019549872234462
1761139837563639600,7.4316396484375,-4.996228324624896,0.9221586843043565,1.1362260170724243
1761139837573698600,7.441698486328125,-4.014401645821333,0.7304702835395932,1.0677585569806396
1761139837583756800,7.4517568359375,-2.8344875128656626,0.31706922288537026,0.9773760560702532
1761139837593815600,7.461815673828125,-1.7849656004518268,0.062030924238264555,0.9081763361811638
1761139837603874600,7.47187451171875,-0.7849421707004308,0.0047295127399265766,0.7647788689199835
1761139837613932500,7.4819326171875,0.10282558370232582,-0.1290304306693375,0.6860048266083002
1761139837623991600,7.491991455078125,0.6183037477791309,-0.3750781981311738,0.8139208662949502
1761139837634050600,7.502050537109375,0.7493295900493859,-0.5271358686447143,1.0408275876961648
1761139837644108500,7.512108642578125,0.6532154866844415,-0.41668081297725434,1.133436751680076
1761139837654167600,7.52216748046875,0.4276362144947052,-0.21251900734752416,1.0643914917003363
1761139837664226600,7.5322265625,0.2616401811301708,-0.12450360089465975,0.9181148157410323
1761139837674284800,7.542284912109375,0.26780805611014363,-0.1562000310152769,0.7927423961225897
1761139837684343600,7.552343505859375,0.3511521097511053,-0.23342443273216484,0.6324008813884109
1761139837694402800,7.56240283203125,0.43482583373785016,-0.2796178824998438,0.49334845759421586
1761139837704461600,7.572461669921875,0.47700434877574444,-0.26871041177734734,0.41326165218353267
1761139837714519600,7.58251953125,0.46896308113932605,-0.2360238015756011,0.2724323366436176
1761139837724578600,7.59257861328125,0.4170587063789367,-0.2418478315539658,0.08272424124218523
1761139837734637600,7.602637451171875,0.32664018430709835,-0.267016613471508,-0.03488033912004903
1761139837744695600,7.612695556640625,0.21888298942148685,-0.2440614159502089,-0.010056041524931787
1761139837754754600,7.622754638671875,0.15623159519731997,-0.1135270104587078,-0.011743921546638012
1761139837764813600,7.6328134765625,0.1374731187134981,-0.003980740199238062,-0.01435604027379304
1761139837774871600,7.64287158203125,0.04795709843933582,-0.01390899062603712,0.10658676286675035
1761139837784930800,7.652930908203125,-0.1329378133714199,0.04994403447285294,0.31967381589319555
1761139837794989600,7.662989501953125,-0.28902795427143574,0.2226147232957184,0.48882089716717597
1761139837805047600,7.673047607421875,-0.321473010802269,0.40813261873200535,0.5390111614860594
1761139837815106600,7.6831064453125,-0.3211491856753826,0.49891719763725995,0.5645217425785959
1761139837825165600,7.69316552734375,-0.2301256834477186,0.4248308016851544,0.4824126010274514
1761139837835224600,7.703224609375,-0.06424187828600406,0.3678036770835519,0.318554894865863
1761139837845282600,7.713282470703125,0.2729308059513569,0.3193967890501022,0.03824629015550017
1761139837855341600,7.723341552734375,0.7376642866969109,0.20698606927022337,-0.16818174337316302
1761139837865400600,7.733400634765625,1.2098831547617912,0.12238120191320777,-0.25648451540004463
1761139837875458600,7.74345849609375,1.5935463720172642,0.05596256411001086,-0.29184195224624127
1761139837885517600,7.753517578125,1.8678794459819792,-0.032702684553712606,-0.31926209328714755
1761139837895576600,7.76357666015625,1.9118454289585352,-0.16197919893860815,-0.2729653658080846
1761139837905634600,7.773634521484375,1.6427409032970666,-0.3692242114059627,-0.019981771201081574
1761139837915693600,7.783693603515625,1.1163859558969735,-0.38583530059754845,0.3399783527752384
1761139837925752600,7.793752685546875,0.742061644873023,-0.1617829457141459,0.47497576555758714
1761139837935811600,7.8038115234375,0.5017763864606618,0.030534838995337484,0.6260137376345694
1761139837945869600,7.81386962890625,0.21221885535717008,0.0075322952009737485,0.7143839488744735
1761139837955928600,7.823928466796875,-0.04521861338615417,-0.1205627543143928,0.6558968347229063
1761139837965987600,7.833987548828125,-0.28209961631298064,-0.24991291845738886,0.4646298377079889
1761139837976045600,7.844045654296875,-0.552785858207941,-0.35811288867443797,0.198619369071722
1761139837986104600,7.8541044921875,-0.7583177831470966,-0.5510324386693537,-0.18572207623887807
1761139837996163600,7.86416357421875,-0.8805687828093767,-0.8837371837124228,-0.7295581371307372
1761139838006221600,7.8742216796875,-0.9623106619507074,-1.265069035410881,-1.3242737963125109
1761139838016280600,7.884280517578125,-0.9723831431537866,-1.5603597033388912,-1.7590353326424955
1761139838026339600,7.894339599609375,-0.8641764509350061,-1.6767339199222624,-2.055860370530933
1761139838036397600,7.9043974609375,-0.758757343608141,-1.6618110760785638,-2.1261244317159056
1761139838046456600,7.91445654296875,-0.7821534167647362,-1.5866054668381808,-1.766741815366596
1761139838056515600,7.924515625,-1.011731987723708,-1.3649202794775366,-1.0352027335517109
1761139838066574600,7.93457470703125,-1.0279448713779449,-1.2097421388559042,-0.5252819844063371
1761139838076632600,7.944632568359375,-0.7161316693246365,-1.0780930501207708,-0.21586345893722025
1761139838086691600,7.954691650390625,-0.2540285370826721,-1.0519060310713946,-0.09733334296159446
1761139838096750600,7.96475048828125,0.20352526129186152,-1.0386426448725163,0.07999028623364865
1761139838106808600,7.97480859375,0.4839209962964058,-1.0566767526045442,0.37016638762690124
1761139838116867600,7.98486767578125,0.5301642765551805,-0.9347650678992271,0.64131505940184
1761139838126926600,7.994926513671875,0.4230091392159462,-0.6122611066140234,0.7388638717450201
1761139838136984600,8.004984619140625,0.2462164020270109,-0.19597060812860725,0.5365329348042607
1761139838147043600,8.015043701171875,0.05711480288505554,0.08178659506589174,0.13281608668789266
1761139838157102600,8.0251025390625,-0.15482406648695468,0.12244213832020759,-0.11652458483949303
1761139838167161600,8.03516162109375,-0.529805380114913,0.029985534549504516,-0.02184102573432028
1761139838177219600,8.045219482421874,-1.0689034892320632,-0.007235358081012964,0.12934409972839056
1761139838187278600,8.055278564453126,-1.3876134650617837,0.15076704618111253,0.3632436026263982
1761139838197337600,8.065337646484375,-1.2904875543057919,0.46077290655151004,0.7400860339511185
1761139838207395600,8.0753955078125,-0.956900911861658,0.6976201533392071,1.2166152394957839
1761139838217454600,8.08545458984375,-0.46133974665403366,0.8220156176842749,1.634412927673757
1761139838227513600,8.095513671875,0.11435118632316589,0.8993990093551576,1.7406448126882315
1761139838237571600,8.105571533203126,0.6929360871762037,0.9756989897035062,1.6490505248352885
1761139838247630600,8.115630615234375,1.100444874921441,0.9065218469724059,1.4553903856061399
1761139838257689300,8.125689453125,1.2999731755316257,0.8328884554848074,1.2821174931064248
1761139838267748400,8.135748291015625,1.2936071476310491,0.8498603408128023,1.1054897372208534
1761139838277806300,8.145806396484375,1.206074994650483,1.0263682697109877,0.9563035304903984
1761139838287865300,8.155865234375,0.9711264210909605,1.1359399666726588,0.8828184614323079
1761139838297924400,8.16592431640625,0.7273387075155973,1.1970330255389212,0.7952982911504805
1761139838307982000,8.175982177734374,0.5699368994951248,1.2329409358747303,0.6217348182063549
1761139838318041300,8.186041259765625,0.40672026771605013,1.1164786026164888,0.3549277558322996
1761139838328100000,8.19610009765625,0.3555436227083206,0.9454030740305781,0.14162906934916972
1761139838338158300,8.206158447265626,0.36604923463165756,0.7140640692703425,-0.06613382951244712
1761139838348217300,8.21621728515625,0.3873316766351461,0.4909846510723233,-0.30796660962775346
1761139838358276400,8.2262763671875,0.49079497371912,0.45678895148187876,-0.47295010494887824
1761139838368334300,8.236334228515625,0.611792758449912,0.5001859023988247,-0.5612121796391905
1761139838378393300,8.246393310546875,0.7336193952202796,0.5987576280489564,-0.4974563313044607
1761139838388452400,8.256452392578124,0.8566051388978958,0.692646456579864,-0.3971907708158716
1761139838398511400,8.266511474609375,0.9514286179304122,0.7351543497025966,-0.32350627019554373
1761139838408569300,8.2765693359375,0.9794804079383611,0.7585583139047026,-0.26695070862844583
1761139838418628000,8.286628173828126,0.8365741582602262,0.8634878841489553,-0.15354575364682824
1761139838428687400,8.296687255859375,0.7705980035275221,1.0022758848533033,-0.04218384880013764
1761139838438745300,8.306745361328124,0.7512661110699176,1.0692252685323358,0.023453173638693987
1761139838448804400,8.316804443359375,0.5161410118997096,1.089869997154176,0.08732051952388137
1761139838458863400,8.32686328125,0.34391280614733694,1.1318772472783922,0.2457789239251986
1761139838468921000,8.336921142578126,0.21901509136855601,1.0590607251316309,0.3314625629622489
1761139838478980400,8.34698046875,0.22901509185731408,0.9797852361038326,0.41639907342642546
1761139838489039000,8.3570390625,0.26192016711533067,0.932253085078299,0.49101365797109897
1761139838499097300,8.367097412109375,0.3432037810951471,0.8298571249648928,0.5885223940322175
1761139838509156400,8.37715625,0.42459260901510715,0.6476394401177764,0.6673681498732418
1761139838519215400,8.38721533203125,0.42988603924810886,0.42951749819666146,0.5057777675891295
1761139838529274000,8.397274169921875,0.35938042439222334,0.252264450019598,0.2154590976537205
1761139838539332400,8.407332275390624,0.22525778515040873,0.14161094917058945,-0.006521364592760801
1761139838549391400,8.417391357421875,-0.0710503892570734,0.056200318388640876,-0.1915929045010358
1761139838559450400,8.427450439453125,-0.4727425996780395,0.05915712236762046,-0.2803295379005372
1761139838569508400,8.43750830078125,-0.7112041497945785,0.08224778283685445,-0.2663013596079312
1761139838579567000,8.447567138671875,-0.8603747205644845,0.12816051596701145,-0.176692144624982
1761139838589626400,8.45762646484375,-0.855232096979022,0.09894581965953111,-0.08019189148666336
1761139838599684400,8.467684326171875,-0.7952005298644303,0.08820815254598856,0.05468965809736401
1761139838609743400,8.477743408203125,-0.7308183663249015,0.019068273085355757,0.1330026222359389
1761139838619802000,8.487802001953124,-0.6744026516199112,-0.056716743478178976,0.1458488424686715
1761139838629860400,8.4978603515625,-0.4916168114960193,-0.08399696459174155,0.05140601505050436
1761139838639919400,8.50791943359375,-0.1455558874040842,-0.11619973679929971,-0.09668011235040612
1761139838649978400,8.517978271484376,0.21926702030301093,-0.21710545835494993,-0.24329171021934598
1761139838660037400,8.528037353515625,0.5140039998710155,-0.31910949654132126,-0.30396584955379363
1761139838670095000,8.53809521484375,0.7830167555958032,-0.35961394088715315,-0.27576069561503824
1761139838680154400,8.548154296875,0.9357955799907446,-0.38524171861857176,-0.1986472982582636
1761139838690213000,8.558213134765625,0.7856482731431722,-0.45120442934781313,-0.1329129255253356
1761139838700271400,8.568271240234376,0.5230418773293495,-0.4870002576112747,-0.12993708805232307
1761139838710330400,8.578330322265625,0.16039046844244004,-0.49124300974756474,-0.18433896958371623
1761139838720389400,8.588389404296874,-0.17803776881396768,-0.5024181914955377,-0.284019058334548
1761139838730447400,8.598447265625,-0.4961936178922653,-0.49603521246016025,-0.34693650135006754
1761139838740506400,8.60850634765625,-0.6564215892493724,-0.46682343876212834,-0.3704739192061126
1761139838750565400,8.6185654296875,-0.6316629955679178,-0.4367272834450006,-0.41299810587652025
1761139838760624400,8.628624267578125,-0.4223281712144613,-0.4690910914331674,-0.4040497333325445
1761139838770682400,8.638682373046874,-0.07333411628007888,-0.5022340671002865,-0.33326928359065205
1761139838780741000,8.6487412109375,0.3420879288077354,-0.5031336462885141,-0.2551235657777637
1761139838790800400,8.65880029296875,0.7102683302491903,-0.5470084438502788,-0.19490809346362947
1761139838800858400,8.6688583984375,1.0411772779166697,-0.5907224978923797,-0.25294645920069886
1761139838810917400,8.67891748046875,1.2468342905402183,-0.6285960092127323,-0.3445692972946912
1761139838820976400,8.688976318359375,1.2734580935716628,-0.5955111934736371,-0.3779574798945337
1761139838831034000,8.6990341796875,1.0760948620408772,-0.5403998393654823,-0.37178956838194277
1761139838841093400,8.70909326171875,0.7539969973385333,-0.483664975708723,-0.3795499367177486
1761139838851152100,8.719152099609374,0.44553544380068777,-0.4436097364351153,-0.4220270328434184
1761139838861210400,8.72921044921875,0.24868483796715735,-0.47133828583806753,-0.5513186717322096
1761139838871269000,8.73926904296875,0.05674713861644268,-0.5181289708465338,-0.7421571411367506
1761139838881328400,8.749328369140626,-0.11338087998628615,-0.5156462141200899,-0.9202731628187
1761139838891387100,8.75938720703125,-0.2324088259488344,-0.4453516116663813,-1.012214072152227
1761139838901445400,8.7694453125,-0.32879297842681404,-0.4170370790690183,-1.010670422906801
1761139838911504400,8.77950439453125,-0.331247385841608,-0.33187019391506906,-0.9800354114726185
1761139838921563400,8.7895634765625,-0.1647182685136795,-0.23154957877099513,-0.8953123245634138
1761139838931621400,8.799621337890626,0.024614801296591757,-0.19613865817189216,-0.7535281377177685
1761139838941680000,8.80968017578125,0.12346154449582099,-0.15755319918990135,-0.5460402929378673
1761139838951739400,8.819739501953125,0.041675826212763785,-0.10026946947872638,-0.4182931800773367
1761139838961797000,8.829797119140625,-0.13820201750993727,-0.09029840282350778,-0.26102088018804787
1761139838971856400,8.8398564453125,-0.20198446159064767,-0.15209931769818066,0.005060352129489183
1761139838981915100,8.8499150390625,-0.14418459905087946,-0.30153409236222506,0.26081892787516114
1761139838991973400,8.859973388671875,-0.16928806064724922,-0.3572355213180184,0.3498944013075903
1761139839002032400,8.870032470703125,-0.17768939376771448,-0.26920214081704613,0.29821009903866796
1761139839012091400,8.88009130859375,-0.1266121174812317,-0.3176417620763182,0.3611237974608317
1761139839022150400,8.890150390625,-0.17154256157577036,-0.5272019196182489,0.5149764981649816
1761139839032208100,8.9002080078125,-0.12498071688711643,-0.6232736451461911,0.7062754612207413
1761139839042267400,8.910267333984375,0.0211404031842947,-0.6895324162125587,0.8580530726838856
1761139839052326100,8.920326171875,0.3556272093385458,-0.672817720516026,0.9427220913182943
1761139839062384400,8.93038427734375,0.5549181940615177,-0.6527548834353685,0.807870699410513
1761139839072443100,8.940443115234375,0.6056301441669464,-0.492009025683999,0.43667759908437725
1761139839082502400,8.95050244140625,0.6746428901165723,-0.21494828032106159,0.02400068798623979
1761139839092560400,8.960560302734375,0.6692711339503526,0.0031219314128160475,-0.32707682215869427
1761139839102619400,8.970619384765625,0.6119008949995041,0.13592793509811163,-0.41032888666726647
1761139839112678400,8.980678466796874,0.5192185196489095,0.22247049251943826,-0.29385157503560183
1761139839122737400,8.9907373046875,0.4614630807727575,0.41922085284888744,-0.16007687244862318
1761139839132795400,9.00079541015625,0.3403033834785223,0.46611266014426944,0.03335179611220956
1761139839142854100,9.010854248046876,0.03321896351277828,0.2802481432273984,0.29994769995361564
1761139839152913400,9.020913330078125,-0.2887754408150911,0.027264146761596202,0.40335941298082467
1761139839162971100,9.03097119140625,-0.4597767351210117,-0.12966507531106472,0.4452338305056095
1761139839173030400,9.041030517578125,-0.566823735910654,-0.26038755072057246,0.5411946430049837
1761139839183089200,9.051089111328125,-0.6327513753265142,-0.256221955473721,0.5586372145846485
1761139839193147100,9.061147216796876,-0.7421955003857612,-0.16967063022404907,0.5240827646844088
1761139839203206400,9.071206298828125,-0.8562807292491197,-0.07247603814601898,0.5037333657473325
1761139839213265400,9.081265380859374,-0.8922755872160196,-0.0027329320952296254,0.5358453909315168
1761139839223323400,9.091323486328125,-0.8546230251699686,0.14433628248125313,0.605637304560095
1761139839233382100,9.101382080078125,-0.7471668590575457,0.4307812345221638,0.6336278659000992
1761139839243441400,9.11144140625,-0.6256693081110716,0.667823273229599,0.7102372044585645
1761139839253500200,9.121500244140625,-0.4436778332352638,0.7354168000310659,0.8005627875499427
1761139839263559400,9.131559326171875,-0.17877601996064185,0.7358376557916403,1.011443964562565
1761139839273618400,9.141618408203126,0.09784253459274768,0.7022054353028535,1.289774729861319
1761139839283677400,9.151677490234375,0.3319295228868723,0.6387275271266698,1.533896497696638
1761139839293735400,9.1617353515625,0.4665285474687814,0.5224924267530441,1.636290704244375
1761139839303794400,9.17179443359375,0.4784282440990209,0.3663073010459542,1.5331418799370526
1761139839313853400,9.181853515625,0.3497100942492485,0.15172171655744313,1.3186385669045149
1761139839323911400,9.191911376953126,-0.0027110125243663785,-0.08268602812364698,1.0040829342752695
1761139839333970400,9.201970458984375,-0.4396352798461914,-0.2504749362543225,0.5397120032317936
1761139839344029400,9.212029541015625,-0.5989800386279821,-0.2644574305079877,0.11016396376639603
1761139839354087400,9.22208740234375,-0.5149339741975069,-0.24990049736723302,-0.19358678173199295
1761139839364146400,9.232146484375,-0.3692389705836773,-0.1906909141600132,-0.25007088549807666
1761139839374205400,9.242205322265624,-0.1781295387506485,-0.029195407085120677,-0.13956497642621396
1761139839384264400,9.252264404296875,0.04851239423453808,0.21033757165521383,0.02524973819926381
1761139839394322400,9.262322509765625,0.24168752642571925,0.40154403412193057,0.3318175869449973
1761139839404381400,9.27238134765625,0.38202363335490225,0.49622927372753617,0.640204321680963
1761139839414440400,9.2824404296875,0.5089654211819171,0.4973196993127465,0.7647562917619943
1761139839424498400,9.29249853515625,0.6362894863247871,0.4899664139404893,0.8027709651187062
1761139839434557400,9.302557373046875,0.7188251461923122,0.4189432049512863,0.8016511673085391
1761139839444616200,9.3126162109375,0.8599667242854833,0.2846115991339087,0.7561669617887586
1761139839454674400,9.32267431640625,0.9762789815485476,0.1691232254743576,0.7350714937247336
1761139839464733400,9.3327333984375,1.0210597880393266,0.012275836466252804,0.6536380229454487
1761139839474792400,9.34279248046875,1.1120277606874704,-0.08142565279901028,0.5492878600243478
1761139839484850400,9.352850341796875,1.157044129499793,-0.12690087129473684,0.556525702323392
1761139839494909400,9.362909423828125,1.1779577381908892,-0.18890519978702067,0.5507217652849853
1761139839504968400,9.372968505859374,1.2868974208593367,-0.23624241276234387,0.4504606252431869
1761139839515027500,9.38302734375,1.3483628201693296,-0.30399083786457776,0.36315365932062266
1761139839525085400,9.39308544921875,1.2386293567746878,-0.4018108683645725,0.2529043553583324
1761139839535144400,9.40314453125,0.9785364050865173,-0.4182619446888566,0.25521423973590135
1761139839545203500,9.413203369140625,0.681439710649848,-0.32648411696255203,0.38609168651141224
1761139839555261400,9.423261474609374,0.4796960720777511,-0.21022622023522852,0.5078704655520617
1761139839565320400,9.433320556640625,0.4100590567499399,-0.11671937675923108,0.7128403726942837
1761139839575379500,9.44337939453125,0.5803548331350088,-0.06218026958107948,0.8507090665966272
1761139839585437400,9.4534375,0.8950672637611627,-0.1072027758732438,0.9350237188354134
1761139839595496400,9.463496337890625,1.1597756002902984,-0.1699360031619668,0.9711550626635551
1761139839605555500,9.473555419921874,1.2766869924902915,-0.24865356604605912,0.9269789440676569
1761139839615613400,9.483613525390625,1.276909695330262,-0.2629875040858984,0.8885609506070613
1761139839625672400,9.49367236328125,1.1886533197283744,-0.24106384156942365,0.8835888612829148
1761139839635731500,9.5037314453125,1.0537947674274444,-0.325822145922482,0.8042692408524453
1761139839645790500,9.51379052734375,0.900327960768342,-0.44547202317565676,0.5310987809263169
1761139839655848400,9.523848388671874,0.7886147217333316,-0.5620525759860873,0.3451040617585182
1761139839665907500,9.533907470703125,0.7641425437778234,-0.5766100936487317,0.3020799627419561
1761139839675966500,9.543966552734375,0.6659878744959831,-0.5390487170174718,0.3494221441533416
1761139839686024400,9.5540244140625,0.44579906317293644,-0.6422206299394368,0.4319865186586976
1761139839696083200,9.564083251953125,0.21558920857310293,-0.7478451967105268,0.6012265754457563
1761139839706142500,9.574142578125,0.016173136165738105,-0.8007695621684193,0.7175981616806238
1761139839716200400,9.584200439453125,-0.1052794065952301,-0.8666831730589271,0.6334731137298047
1761139839726259500,9.594259521484375,-0.1417389594644308,-0.9363900387525558,0.4595768286347389
1761139839736318500,9.604318359375,-0.14473054249584674,-1.0158411766082047,0.21326967958435414
1761139839746377500,9.61437744140625,-0.16734744797348974,-0.9696969728097319,-0.009711612001433967
1761139839756435500,9.624435546875,-0.42264030590355395,-0.7865408380687237,-0.06010613018814474
1761139839766494500,9.634494384765626,-0.8842752361118793,-0.42428719632774586,0.08093078195415437
1761139839776553500,9.644553466796875,-1.3675859915554522,-0.10029343487620353,0.3315982816385105
1761139839786611200,9.654611083984374,-1.7471341747075317,0.10479659151434897,0.7766060117706656
1761139839796670500,9.66467041015625,-1.9301772044628858,0.2737821620836854,1.2211381968129424
1761139839806729200,9.674729248046875,-2.055680483919382,0.393342899748683,1.4894852551706135
1761139839816787500,9.684787353515626,-2.1285025590240956,0.42599984546452757,1.5383422250591217
1761139839826846500,9.694846435546875,-2.123068259015679,0.3838561094790697,1.4203994439847767
1761139839836905500,9.704905517578124,-1.9867402186840772,0.2504284667640924,1.2686613608144224
1761139839846963500,9.71496337890625,-1.7922995966017246,0.03869359553158283,1.0461815890099853
1761139839857022500,9.7250224609375,-1.475059108802676,-0.12769056036770343,0.809506849244982
1761139839867081500,9.73508154296875,-1.1180308004945516,-0.20579466752856967,0.6070692370593548
1761139839877140500,9.745140380859375,-0.8147183002829551,-0.14895955836772917,0.42510771893039345
1761139839887198500,9.755198486328124,-0.6113771633863448,-0.008834171579778194,0.1693892194667831
1761139839897257200,9.76525732421875,-0.5438759910434484,0.13279957394450903,0.005097049144376069
1761139839907316500,9.77531640625,-0.5736456908851861,0.31671704844683407,-0.11290472297505474
1761139839917374500,9.78537451171875,-0.6201175192028283,0.5170595880493521,-0.19337810741737485
1761139839927433500,9.79543359375,-0.6809083802521229,0.6689192517727613,-0.2523464840135537
1761139839937492500,9.805492431640625,-0.8070289148241281,0.8030190946608782,-0.16767087124157695
1761139839947550500,9.815550537109376,-0.9722785137355328,0.9102961048141122,-0.1250382740269415
1761139839957609500,9.825609375,-1.0788958909362554,0.9804945534169673,-0.16600480119287966
1761139839967668500,9.83566845703125,-1.0606097081393002,1.0115575079396366,-0.176248529043328
1761139839977726500,9.8457265625,-0.8654016088157892,0.9574681903555988,-0.14567675557108595
1761139839987785200,9.85578515625,-0.5952607258439063,0.9279165171787143,-0.08368368825833312
1761139839997844500,9.865844482421876,-0.3021329350382089,0.9852756502136587,-0.05333273619622923
1761139840007903200,9.8759033203125,-0.13207798167169094,1.0651073118194938,-0.06128468158137984
1761139840017961500,9.88596142578125,-0.056682256686687464,1.1063523453995585,-0.14018488015653566
1761139840028020500,9.8960205078125,-0.05308510897755622,1.1374731675893068,-0.23518627303922549
1761139840038079500,9.90607958984375,-0.02443301498889923,1.155298454876244,-0.28506144352694973
1761139840048137500,9.916137451171876,0.06261106221377849,1.1074585530757903,-0.37456133465021846
1761139840058196500,9.926196533203125,0.1784767447531223,1.0574088662713765,-0.4565788158625364
1761139840068255500,9.93625537109375,0.2660474761784076,0.9987605702087282,-0.45307486286219206
1761139840078313500,9.9463134765625,0.410422629365325,0.9366457670792937,-0.40247890381924806
1761139840088372500,9.95637255859375,0.5948655890464782,0.8462836513698101,-0.33356841266769915
1761139840098431200,9.96643115234375,0.8343693416923285,0.8277475854650139,-0.316710107249394
1761139840108489500,9.976489501953125,1.103870757716894,0.8533934833750129,-0.3105575759690255
1761139840118548500,9.986548583984375,1.2768366300940512,0.864098417262733,-0.35208537201322615
1761139840128607500,9.996607421875,1.3238918112576008,0.8714622240290045,-0.4549311217207461
1761139840138666500,10.00666650390625,1.2044558690160512,0.9003443273812531,-0.5513021224562078
1761139840148724200,10.01672412109375,0.886944747582078,0.9192103558927774,-0.5457181117787957
1761139840158783500,10.026783447265625,0.32933424569666386,1.026202703885734,-0.41820495380461215
1761139840168842200,10.03684228515625,-0.28760230538249015,1.0741302839696407,-0.43541810054257507
1761139840178900500,10.046900390625,-0.8433177873015403,1.035854037067294,-0.4835127442890778
1761139840188959500,10.05695947265625,-1.1994669746875761,0.9544766073241829,-0.4450801743138581
1761139840199018500,10.0670185546875,-1.2318670230329036,0.9374652667686343,-0.4486369169473648
1761139840209076500,10.077076416015625,-0.9203484200119971,0.9216086492061615,-0.4772337005522102
1761139840219135500,10.087135498046875,-0.4153080633193254,0.7878393534466623,-0.36887240229360757
1761139840229194500,10.097194580078124,0.05715221228599548,0.6207166541397571,-0.22967991244159638
1761139840239252200,10.107252197265625,0.4770961187124252,0.5049024095267057,-0.1581670019729994
1761139840249311500,10.1173115234375,0.8046025644600391,0.3690723818451166,-0.08871299679558724
1761139840259370200,10.127370361328126,0.9637468322336673,0.29457945091873405,-0.012106416449788958
1761139840269428200,10.13742822265625,1.0355886641293763,0.2430205285951495,0.003668441113363951
1761139840279486200,10.147486328125,1.018418333619833,0.2229156059384346,-0.018017115498031488
1761139840289545000,10.157544921875,0.9303466669350862,0.22817425711899994,-0.06852073378213681
1761139840299604200,10.167604248046874,0.8570897075444459,0.2647632815867662,-0.03480596784274093
1761139840309662200,10.177662109375,0.8214327032297849,0.26028964330404997,-0.03578651701242197
1761139840319721200,10.18772119140625,0.7069839017510414,0.2456365563124418,-0.005208875488396734
1761139840329780200,10.1977802734375,0.6938637234151362,0.19866963795423506,0.019691309487679973
1761139840339838200,10.207838134765625,0.7713923687756061,0.19118951133191583,0.06234940646975301
1761139840349897200,10.217897216796874,0.9251853386491536,0.2230067913532257,0.1975485980350524
1761139840359956200,10.227956298828126,0.9181289903968572,0.2567603001341224,0.43225693309791385
1761139840370014200,10.23801416015625,0.7011153019785881,0.26574966227561236,0.533531049574539
1761139840380073000,10.248072998046876,0.4380921420574188,0.21788608733862638,0.49374432504400606
1761139840390132200,10.25813232421875,0.21322657109498977,0.15517214927226305,0.38040268108956515
1761139840400190200,10.268190185546874,0.057658408242464064,0.037431905032694335,0.2712639504513703
1761139840410249200,10.278249267578126,0.008051204508543014,-0.10024082790613174,0.08456599665135145
1761139840420308200,10.28830810546875,0.05959259117543697,-0.22728841419517992,-0.12233542654272168
1761139840430367200,10.2983671875,0.20529344000816344,-0.2981967646330595,-0.32090452673193065
1761139840440425200,10.30842529296875,0.38491175601184363,-0.32984599461108444,-0.44308673547431826
1761139840450484200,10.318484130859375,0.48666181943714615,-0.34661621988713737,-0.5122140111817046
1761139840460543200,10.328543212890626,0.4822732290893793,-0.3996647962465882,-0.5975074087921529
1761139840470601000,10.33860107421875,0.4080974012881517,-0.4577387995526194,-0.6501187627781182
1761139840480660200,10.34866015625,0.36476504004001614,-0.5013514390468597,-0.6693545744501054
1761139840490719000,10.358718994140625,0.3248819424629211,-0.5447285162195563,-0.7008803241789341
1761139840500777200,10.368777099609375,0.29282091681361194,-0.5468614365950226,-0.741419109185785
1761139840510836200,10.378836181640626,0.233179810321331,-0.5073156081482768,-0.7741735969919711
1761139840520895200,10.388895263671875,0.23660393955111503,-0.4599611517772078,-0.8204996601633727
1761139840530953200,10.398953125,0.3972019132643938,-0.41450434572100636,-0.7788617548082023
1761139840541012200,10.40901220703125,0.6021276890039443,-0.39796179172098634,-0.6441488215230405
1761139840551071200,10.4190712890625,0.8265092758417129,-0.41890024259239433,-0.4779513473022729
1761139840561130200,10.429130126953124,1.0206178894907236,-0.41084114703834057,-0.3591236000869423
1761139840571188200,10.439188232421875,1.2027297758758067,-0.406804438868165,-0.37107371173016723
1761139840581247000,10.4492470703125,1.264168287178874,-0.44100510689467187,-0.5034830807806924
1761139840591306200,10.45930615234375,1.244721828430891,-0.553274518507719,-0.6939438759792596
1761139840601364200,10.4693642578125,1.1491565911203623,-0.6351119669780135,-0.7879563308898359
1761139840611423200,10.47942333984375,0.9320815279036759,-0.6220090320378542,-0.8116814168050884
1761139840621482200,10.489482177734375,0.6489613363713026,-0.5451888272076845,-0.7917860452458262
1761139840631540000,10.4995400390625,0.4402414290457964,-0.43772856944203375,-0.726528998567909
1761139840641599200,10.50959912109375,0.30478549537360666,-0.39997634641379115,-0.6582907441221177
1761139840651658000,10.519657958984375,0.29233810173273084,-0.41114363711625335,-0.5485317444274201
1761139840661716200,10.52971630859375,0.32634616979658604,-0.3981687124699354,-0.3802635283472016
1761139840671775000,10.53977490234375,0.35356209350228307,-0.33564854341000316,-0.18244621463967486
1761139840681834200,10.549834228515625,0.3690080844372511,-0.30174539702534675,0.01217036679778248
1761139840691893000,10.55989306640625,0.3152817549467087,-0.3378530677169561,0.21475520543437449
1761139840701951200,10.569951171875,0.16909809103310108,-0.31556875519454475,0.3233075327530503
1761139840712010200,10.58001025390625,0.014345336216688155,-0.28765695817917586,0.3281341491919011
1761139840722069200,10.5900693359375,-0.15728607268631456,-0.3130839526414871,0.3478064160523936
1761139840732127200,10.600127197265625,-0.20905893002152443,-0.35878538110852237,0.4112892195994034
1761139840742186000,10.61018603515625,-0.1586480086892843,-0.46774435299932954,0.3993439302617684
1761139840752245200,10.620245361328125,0.000495090040564537,-0.6265650879070163,0.4108106788348406
1761139840762303200,10.63030322265625,0.16507365782260894,-0.8562067872300744,0.48182395095191893
1761139840772362200,10.6403623046875,0.1382236448198557,-1.0318959470912814,0.5087572583239526
1761139840782421000,10.6504208984375,-0.04944119951725006,-1.064457908000052,0.4455254338633269
1761139840792479200,10.660479248046874,-0.3372697148710489,-0.9957923680528997,0.31005466794818637
1761139840802538200,10.670538330078125,-0.5383154343068599,-0.9447893260464072,0.1570720098105259
1761139840812597200,10.68059716796875,-0.5379074380278587,-0.9881605580002069,0.09683724827403202
1761139840822656300,10.69065625,-0.38694180053472516,-1.13299105373919,0.11934875714844093
1761139840832714000,10.7007138671875,-0.15427286234498022,-1.2174550513207911,0.005975658609811216
1761139840842773200,10.710773193359374,-0.0653951399743557,-1.1841267822146415,-0.012972769221849739
1761139840852832000,10.72083203125,-0.2417670214027166,-1.0251672233581541,0.18384641856011003
1761139840862890200,10.73089013671875,-0.5554623839408159,-0.8171648166522383,0.6348813730925321
1761139840872949200,10.74094921875,-0.8546078276008368,-0.6382254228234291,0.9601790567494928
1761139840883008300,10.75100830078125,-1.0266980861872435,-0.5207084659457206,1.0568455333001912
1761139840893066200,10.761066162109374,-1.1003951905608176,-0.4629138641029596,1.1053510594025253
1761139840903125200,10.771125244140626,-1.1195078873097897,-0.3853609610840678,1.1106710123162715
1761139840913184300,10.781184326171875,-1.181768820911646,-0.25526976931542156,0.997110464914143
1761139840923242000,10.791241943359376,-1.2160521987855433,-0.06810381441116332,0.8018345610514283
1761139840933301200,10.80130126953125,-1.300640115007758,0.12304273456186056,0.5985720423489809
1761139840943360000,10.811360107421875,-1.3600532579630613,0.2760126976147294,0.46040009118374436
1761139840953418200,10.821418212890626,-1.3841238693803548,0.394297716255486,0.43662619769070293
1761139840963477200,10.831477294921875,-1.4101672421753406,0.4909186000987887,0.45840515450686214
1761139840973536300,10.841536376953124,-1.318798287510872,0.6321133696839213,0.47821832767538724
1761139840983595000,10.851594970703125,-1.0970248373448848,0.8415648061543702,0.47368598147537555
1761139840993653000,10.861653076171875,-0.7553507500350475,1.0418550310477614,0.4468482434323057
1761139841003712300,10.871712158203126,-0.287059869068861,1.1648851983889936,0.3306875600017607
1761139841013771000,10.88177099609375,0.29756255838274953,1.2147247495740652,0.17644209712035952
1761139841023829200,10.891829345703124,0.862110166054964,1.1490323802188038,0.06894435688853263
1761139841033888000,10.901887939453125,1.3757733896642923,1.1425284051522613,-0.0023618337605148553
1761139841043947300,10.911947265625,1.7875386658102272,1.147208379662037,-0.20804609971716997
1761139841054005200,10.922005126953126,2.1013141078472137,1.0445847482725976,-0.43726460519209503
1761139841064064300,10.932064208984375,2.1342916638195515,0.8813298303097487,-0.5348024577498436
1761139841074123300,10.942123291015625,1.685878034234047,0.8798322852283715,-0.4838710196748376
1761139841084181000,10.952180908203125,1.2043658526450396,1.1033835587218404,-0.4876994919218123
1761139841094240300,10.962240234375,0.8893997395187616,1.3094593812793494,-0.5271226803695783
1761139841104299000,10.972299072265624,0.6968026994764804,1.3869707832440734,-0.5598912332337349
1761139841114358300,10.982358154296875,0.7270347561329603,1.3286328683048485,-0.7016254434578121
1761139841124416000,10.992416015625,1.0956284145504236,1.1318684794500469,-0.9470925614874809
1761139841134475300,11.002475341796876,1.6499457201093435,0.8874962439849973,-1.1262328116506337
1761139841144534000,11.012533935546875,2.1081717186570166,0.6838122850000858,-1.3046402905598282
1761139841154592300,11.02259228515625,2.3053607626646757,0.44796296320855616,-1.3216295654140413
1761139841164651300,11.0326513671875,2.0074334626227617,0.24293314257264137,-1.1096207726109772
1761139841174710300,11.042710205078125,1.128076978212595,0.17130290760099887,-0.7857548022575676
1761139841184768300,11.052768310546876,0.12820435510873793,0.27134295223802324,-0.6401697618242352
1761139841194827000,11.062826904296875,-0.8096890739440917,0.46777387135475873,-0.5333078352779149
1761139841204886300,11.07288623046875,-1.6825106036275623,0.702909491918981,-0.2861680713282898
1761139841214944000,11.082944091796875,-2.374710777744651,0.861623259320855,-0.09555029546972364
1761139841225003300,11.093003173828125,-2.6884944030880926,0.9292216084279119,0.004103562861308455
1761139841235062000,11.10306201171875,-2.6188947971612215,0.8569517603784799,0.05234866619547829
1761139841245121300,11.113121337890625,-2.288832237190008,0.6535267445906996,0.043568928216677155
1761139841255179300,11.12317919921875,-1.5658622462779284,0.45188919674158096,-0.08184256303682923
1761139841265238300,11.13323828125,-0.678752079001069,0.30906434173658487,-0.17178543042093514
1761139841275297300,11.14329736328125,0.005754033482074737,0.14948065963238477,-0.2278241650396958
1761139841285355000,11.15335498046875,0.5588514418572187,-0.005781652141362429,-0.30670188692156225
1761139841295414300,11.163414306640625,0.8403361411422491,-0.10890490361601114,-0.2523149746304378
1761139841305473000,11.17347314453125,0.8249784130126238,-0.04997252991497517,-0.08034273466682061
1761139841315531300,11.18353125,0.6110539227813482,0.1328634329609573,0.02304152409788221
1761139841325590000,11.193590087890625,0.3620622108221054,0.18635478465184568,0.10522908291378989
1761139841335649300,11.203649169921874,0.15551789397001264,0.04229249680638313,0.21535242240885272
1761139841345707300,11.213707275390625,0.13502806364893913,-0.12671864659562707,0.1787229015339166
1761139841355766000,11.22376611328125,0.21363865902721882,-0.12465806080400943,0.05019152469420805
1761139841365825300,11.2338251953125,0.3285200067043304,-0.12131883337870239,0.05134876843793317
1761139841375883000,11.243883056640625,0.46071197014451026,-0.13955255533605812,0.018881554874218998
1761139841385942300,11.2539423828125,0.6289736103534698,-0.17588395178094504,0.006823745072819292
1761139841396001000,11.2640009765625,0.7750929768592119,-0.2952278318248689,0.027400596090219914
1761139841406060300,11.274060302734375,0.7793272534281015,-0.3926224765196442,-0.14826182189453394
1761139841416118300,11.2841181640625,0.5724708018869161,-0.4171820404976606,0.42530159753467883
1761139841426177300,11.29417724609375,0.5727139629930258,-0.502312246903032,0.9327286667007952
1761139841436236000,11.304236083984375,0.5064192438304423,-0.34679143032357096,0.7437155495598912
1761139841446294000,11.3142939453125,0.8211579779416323,-0.3718656658254564,0.764168408871442
1761139841456353300,11.324353271484375,0.5705161606878042,-0.7303333592869341,0.9572353314477949
1761139841466412000,11.334412109375,0.09431436046659945,-0.8597551273614168,0.6970715795457363
1761139841476470300,11.34447021484375,-0.3015963439434767,-0.6123894091688096,0.15537057618750258
1761139841486529000,11.354529052734375,-0.6013035131394863,-0.47633755543008444,-0.2707389949955046
1761139841496588300,11.36458837890625,-0.6782154879063368,-0.44959801706448194,-0.36724757757075127
1761139841506646300,11.374646240234375,-0.43261166481971736,-0.5586226015374064,-0.22354336418164894
1761139841516705300,11.384705322265624,-0.02948679124712944,-0.7449848388433457,-0.09761776765985414
1761139841526764000,11.394763916015625,0.34760581544637675,-0.8450115856073797,-0.1425493807981722
1761139841536823300,11.4048232421875,0.4875649057567119,-0.9067920422159135,-0.10587766474932432
1761139841546881300,11.41488134765625,0.27483225565850733,-1.062110321960598,0.09071390655552967
1761139841556940000,11.42493994140625,0.06874678848981856,-1.0865838150903582,0.19726934270225463
