time,seconds_elapsed,z,y,x
1761139830210730800,0.078730712890625,0.16858071088790894,0.16682669520378113,-0.1385536789894104
1761139830220790000,0.0887900390625,0.037186749279499054,0.19509227573871613,0.018839772790670395
1761139830230847700,0.09884765625,-0.10106220096349716,0.20340320467948914,0.134552001953125
1761139830240906800,0.10890673828125,-0.207170769572258,0.2341480255126953,0.19438062608242035
1761139830250965200,0.11896533203125,-0.2616691589355469,0.28299227356910706,0.2021847516298294
1761139830261024500,0.1290244140625,-0.2752966582775116,0.31736865639686584,0.15275518596172333
1761139830271082500,0.13908251953125,-0.26842543482780457,0.29112106561660767,0.08300541341304779
1761139830281141500,0.1491416015625,-0.23803775012493134,0.19925178587436676,0.023871682584285736
1761139830291200500,0.159200439453125,-0.18862733244895935,0.08564028143882751,-0.011831985786557198
1761139830301258200,0.16925830078125,-0.14846357703208923,0.016077175736427307,-0.009047621861100197
1761139830311317500,0.1793173828125,-0.12610819935798645,0.006436531897634268,0.011847274377942085
1761139830321376300,0.189376220703125,-0.10496354848146439,0.03059360943734646,0.031572047621011734
1761139830331434500,0.1994345703125,-0.09427282214164734,0.06236938387155533,0.04177914559841156
1761139830341493200,0.2094931640625,-0.10945616662502289,0.08716306835412979,0.024138323962688446
1761139830351552500,0.219552490234375,-0.166045680642128,0.1125832051038742,-0.02343665063381195
1761139830361611300,0.229611328125,-0.22895711660385132,0.17712616920471191,-0.053514257073402405
1761139830371669500,0.23966943359375,-0.2690771222114563,0.2812616229057312,-0.0466182678937912
1761139830381728500,0.249728515625,-0.2778988778591156,0.35182663798332214,-0.01423494704067707
1761139830391787500,0.25978759765625,-0.2769515812397003,0.3664867877960205,0.0358913354575634
1761139830401845500,0.269845458984375,-0.25208157300949097,0.31681910157203674,0.11051047593355179
1761139830411904300,0.279904296875,-0.22691255807876587,0.2111257165670395,0.18620283901691437
1761139830421963500,0.289963623046875,-0.2024538516998291,0.10434433817863464,0.2719344198703766
1761139830432021500,0.300021484375,-0.18106015026569366,0.039965346455574036,0.3682079613208771
1761139830442080500,0.31008056640625,-0.16326218843460083,-0.0014345175586640835,0.4307597875595093
1761139830452139300,0.32013916015625,-0.13152183592319489,0.0037914030253887177,0.45725157856941223
1761139830462198500,0.330198486328125,-0.10685361921787262,0.03457678481936455,0.43976691365242004
1761139830472256500,0.340256591796875,-0.10227324813604355,0.07171349972486496,0.3874339461326599
1761139830482315500,0.3503154296875,-0.1153443232178688,0.10690838098526001,0.3121175169944763
1761139830492374500,0.36037451171875,-0.14797310531139374,0.1390245109796524,0.21899715065956116
1761139830502432300,0.370432373046875,-0.18877720832824707,0.15867233276367188,0.12309619784355164
1761139830512491500,0.380491455078125,-0.22161024808883667,0.19319035112857819,0.04500299692153931
1761139830522550300,0.39055029296875,-0.2468278706073761,0.21227554976940155,-0.0021059690043330193
1761139830532608500,0.4006083984375,-0.26269418001174927,0.20856231451034546,-0.0005240514874458313
1761139830542667300,0.410667236328125,-0.27481788396835327,0.192765012383461,0.049338869750499725
1761139830552726500,0.4207265625,-0.2698308527469635,0.14404861629009247,0.12980760633945465
1761139830562785300,0.430785400390625,-0.2548321485519409,0.07317261397838593,0.2251698225736618
1761139830572843300,0.44084326171875,-0.2377263754606247,-0.0017375824972987175,0.30702024698257446
1761139830582902500,0.450902587890625,-0.22260090708732605,-0.08477583527565002,0.35474491119384766
1761139830592961300,0.460961181640625,-0.22138437628746033,-0.14641043543815613,0.3776448965072632
1761139830603019500,0.47101953125,-0.24512064456939697,-0.1864447444677353,0.3555072546005249
1761139830613078300,0.481078369140625,-0.2954826354980469,-0.19530454277992249,0.2795003652572632
1761139830623137500,0.491137451171875,-0.3497079014778137,-0.1759820431470871,0.17709343135356903
1761139830633195500,0.501195556640625,-0.4026464819908142,-0.12085381150245667,0.06524786353111267
1761139830643254500,0.511254638671875,-0.44402533769607544,-0.04017266631126404,-0.022916974499821663
1761139830653313300,0.521313232421875,-0.4841628968715668,0.03845743089914322,-0.08901769667863846
1761139830663372500,0.53137255859375,-0.5071364045143127,0.0925145372748375,-0.11439655721187592
1761139830673430500,0.541430419921875,-0.5174359679222107,0.13062196969985962,-0.10280727595090866
1761139830683489300,0.5514892578125,-0.5176783204078674,0.140301913022995,-0.06541475653648376
1761139830693548500,0.561548583984375,-0.5098363757133484,0.11140555888414383,-0.026735272258520126
1761139830703606300,0.571606201171875,-0.492278516292572,0.04607521370053291,-0.004179198294878006
1761139830713665500,0.58166552734375,-0.4763599932193756,-0.032020386308431625,-0.016454506665468216
1761139830723724300,0.591724365234375,-0.4725714325904846,-0.11170890927314758,-0.06601382046937943
1761139830733782500,0.601782470703125,-0.48235535621643066,-0.17130619287490845,-0.13023914396762848
1761139830743841500,0.611841552734375,-0.5069802403450012,-0.21172912418842316,-0.20192281901836395
1761139830753900500,0.621900634765625,-0.5318182110786438,-0.23267967998981476,-0.24969302117824554
1761139830763959300,0.631959228515625,-0.5615723133087158,-0.24852944910526276,-0.2593006193637848
1761139830774017300,0.642017333984375,-0.5961944460868835,-0.2829870283603668,-0.2507835626602173
1761139830784076500,0.65207666015625,-0.6312009692192078,-0.35767656564712524,-0.2396479696035385
1761139830794135300,0.66213525390625,-0.6768366098403931,-0.4827527403831482,-0.2353656142950058
1761139830804193500,0.672193603515625,-0.7562304735183716,-0.6818479299545288,-0.25999072194099426
1761139830814252300,0.682252197265625,-0.8316065073013306,-0.8757244944572449,-0.2698438763618469
1761139830824311600,0.6923115234375,-0.8664028644561768,-0.9405972957611084,-0.22384987771511078
1761139830834369500,0.70236962890625,-0.8491498231887817,-0.9502667188644409,-0.13501879572868347
1761139830844428500,0.712428466796875,-0.7781023979187012,-0.9023717641830444,-0.01259393710643053
1761139830854487300,0.7224873046875,-0.6884012818336487,-0.8208092451095581,0.10555347800254822
1761139830864546600,0.732546630859375,-0.6064748764038086,-0.718114972114563,0.19538360834121704
1761139830874604500,0.7426044921875,-0.5305966138839722,-0.6127818822860718,0.23361355066299438
1761139830884663300,0.752663330078125,-0.4599835276603699,-0.49432364106178284,0.22825586795806885
1761139830894722600,0.76272265625,-0.38854318857192993,-0.35525816679000854,0.18457069993019104
1761139830904780300,0.7727802734375,-0.30800947546958923,-0.24551257491111755,0.10594050586223602
1761139830914839600,0.782839599609375,-0.23516538739204407,-0.16789129376411438,0.02035689353942871
1761139830924898300,0.792898193359375,-0.17934691905975342,-0.08579672873020172,-0.04896680638194084
1761139830934956300,0.802956298828125,-0.12358566373586655,0.03011815994977951,-0.08480124175548553
1761139830945015600,0.813015625,-0.06962516903877258,0.15859083831310272,-0.08331713080406189
1761139830955074300,0.82307421875,-0.03525734320282936,0.2441616654396057,-0.03975793346762657
1761139830965133300,0.83313330078125,-0.026958784088492393,0.2840830087661743,0.04196973517537117
1761139830975191300,0.84319140625,-0.04057765379548073,0.2551184594631195,0.13154195249080658
1761139830985250600,0.85325048828125,-0.04172717407345772,0.14574846625328064,0.23759503662586212
1761139830995309300,0.863309326171875,-0.00879825558513403,-0.008783054538071156,0.3912927210330963
1761139831005367600,0.873367431640625,0.055086132138967514,-0.15241844952106476,0.5898644924163818
1761139831015426300,0.88342626953125,0.12882666289806366,-0.3044034540653229,0.7955036759376526
1761139831025485600,0.893485595703125,0.1758800595998764,-0.4508531391620636,0.955838143825531
1761139831035543600,0.90354345703125,0.19425295293331146,-0.554952085018158,1.0473648309707642
1761139831045602300,0.913602294921875,0.19270971417427063,-0.6219058036804199,1.0701041221618652
1761139831055661300,0.923661376953125,0.19088758528232574,-0.6487017273902893,1.012133240699768
1761139831065720300,0.93372021484375,0.15742161870002747,-0.6655420064926147,0.880315363407135
1761139831075778600,0.943778564453125,0.12173686921596527,-0.6035007834434509,0.7261782884597778
1761139831085837300,0.95383740234375,0.10464803874492645,-0.5092726349830627,0.559944748878479
1761139831095896600,0.963896484375,0.10785608738660812,-0.4202024042606354,0.39764076471328735
1761139831105954300,0.973954345703125,0.12336064875125885,-0.31579408049583435,0.26500165462493896
1761139831116013600,0.984013671875,0.044733744114637375,-0.3391475975513458,0.13571423292160034
1761139831126072300,0.994072265625,-0.019002771005034447,-0.3452182412147522,0.07384141534566879
1761139831136130300,1.00413037109375,0.1079554408788681,-0.2963516116142273,0.04450269788503647
1761139831146189600,1.014189453125,0.22663141787052155,-0.36238378286361694,-0.025707485154271126
1761139831156248300,1.024248291015625,0.23771177232265472,-0.3410779535770416,-0.054219022393226624
1761139831166307300,1.034307373046875,0.236019104719162,-0.23419946432113647,-0.04658062383532524
1761139831176365300,1.044365234375,0.2708817422389984,-0.16442890465259552,-0.03284404054284096
1761139831186424600,1.054424560546875,0.2923448085784912,-0.1756058931350708,-0.04201396182179451
1761139831196483300,1.0644833984375,0.29222285747528076,-0.28573402762413025,-0.09203477948904037
1761139831206541600,1.07454150390625,0.2789098620414734,-0.4552880525588989,-0.18754369020462036
1761139831216600300,1.084600341796875,0.22370438277721405,-0.6302867531776428,-0.33648842573165894
1761139831226659600,1.09465966796875,0.14380116760730743,-0.6861720681190491,-0.5037521719932556
1761139831236717600,1.104717529296875,0.07722905278205872,-0.581497848033905,-0.6150116324424744
1761139831246776300,1.1147763671875,0.019491903483867645,-0.4008609652519226,-0.6704605221748352
1761139831256835600,1.124835693359375,-0.0176653191447258,-0.19611820578575134,-0.6445317268371582
1761139831266894600,1.13489453125,-0.040248557925224304,-0.013522342778742313,-0.5535618662834167
1761139831276952800,1.144952880859375,-0.06043052300810814,0.08285852521657944,-0.44429951906204224
1761139831287011600,1.155011474609375,-0.07068318128585815,0.07742864638566971,-0.34995466470718384
1761139831297070800,1.16507080078125,-0.08141279220581055,0.02394997514784336,-0.2718351185321808
1761139831307128600,1.175128662109375,-0.10317716747522354,-0.06571698933839798,-0.20566847920417786
1761139831317187800,1.185187744140625,-0.1368967890739441,-0.20462027192115784,-0.1599491983652115
1761139831327246600,1.19524658203125,-0.15241897106170654,-0.28744176030158997,-0.09325386583805084
1761139831337304600,1.2053046875,-0.14913183450698853,-0.23929843306541443,0.0111295310780406
1761139831347363600,1.215363525390625,-0.13086721301078796,-0.10777655243873596,0.13350927829742432
1761139831357422600,1.225422607421875,-0.11905422061681747,0.01366732083261013,0.2520838677883148
1761139831367481600,1.235481689453125,-0.1285654604434967,0.08627018332481384,0.3489803969860077
1761139831377539600,1.24553955078125,-0.14639240503311157,0.10903728008270264,0.4120675027370453
1761139831387598800,1.255598876953125,-0.16684475541114807,0.07104991376399994,0.42515289783477783
1761139831397657600,1.26565771484375,-0.1836828589439392,-0.018820587545633316,0.3923901617527008
1761139831407715600,1.275715576171875,-0.21592330932617188,-0.15122048556804657,0.3127264082431793
1761139831417774600,1.285774658203125,-0.21934492886066437,-0.24585777521133423,0.22136561572551727
1761139831427833600,1.29583349609375,-0.20134373009204865,-0.28353264927864075,0.11053110659122467
1761139831437891800,1.305891845703125,-0.1875927597284317,-0.2843382656574249,-0.011663779616355896
1761139831447950600,1.31595068359375,-0.1705913543701172,-0.25656723976135254,-0.14048166573047638
1761139831458009600,1.326009521484375,-0.17888523638248444,-0.21571648120880127,-0.27060291171073914
1761139831468068600,1.336068603515625,-0.19912119209766388,-0.12974321842193604,-0.37858662009239197
1761139831478126800,1.346126953125,-0.21744772791862488,0.007212769240140915,-0.4445027709007263
1761139831488185600,1.356185546875,-0.20324265956878662,0.14074267446994781,-0.4580629765987396
1761139831498244900,1.366244873046875,-0.18363593518733978,0.2416498363018036,-0.4379577040672302
1761139831508302600,1.376302490234375,-0.1750539392232895,0.27479690313339233,-0.3768173158168793
1761139831518361600,1.386361572265625,-0.16998115181922913,0.23895369470119476,-0.3022533357143402
1761139831528420600,1.396420654296875,-0.17432153224945068,0.15388056635856628,-0.2333424985408783
1761139831538478600,1.406478515625,-0.17847713828086853,0.04592934623360634,-0.18816916644573212
1761139831548537900,1.416537841796875,-0.18873032927513123,-0.03185633569955826,-0.17188884317874908
1761139831558596600,1.4265966796875,-0.1990138590335846,-0.06944312155246735,-0.19756251573562622
1761139831568655600,1.436655517578125,-0.2104233354330063,-0.07340732216835022,-0.259576678276062
1761139831578713600,1.446713623046875,-0.2034274786710739,-0.021732406690716743,-0.33180561661720276
1761139831588772900,1.45677294921875,-0.17618852853775024,0.07126632332801819,-0.4105752110481262
1761139831598831600,1.46683154296875,-0.13409167528152466,0.15562674403190613,-0.47215333580970764
1761139831608889600,1.4768896484375,-0.11615683883428574,0.17742528021335602,-0.519179105758667
1761139831618948600,1.486948486328125,-0.09998239576816559,0.1620686948299408,-0.5347068905830383
1761139831629007600,1.497007568359375,-0.0638519898056984,0.16156509518623352,-0.4975055456161499
1761139831639065900,1.50706591796875,-0.038632653653621674,0.1571841984987259,-0.43491193652153015
1761139831649124600,1.51712451171875,-0.026211699470877647,0.1243131086230278,-0.3578876256942749
1761139831659183600,1.52718359375,-0.03572211414575577,0.04816720262169838,-0.3031695485115051
1761139831669242600,1.53724267578125,-0.05788349360227585,-0.03520256280899048,-0.2841666042804718
1761139831679300900,1.54730078125,-0.09384842216968536,-0.06564462184906006,-0.299052357673645
1761139831689359600,1.557359619140625,-0.13916480541229248,-0.03203762695193291,-0.3413291573524475
1761139831699419000,1.5674189453125,-0.16003786027431488,0.03094107285141945,-0.4120693504810333
1761139831709476600,1.5774765625,-0.1530049741268158,0.0682387426495552,-0.5035408139228821
1761139831719535600,1.58753564453125,-0.11602964997291565,0.10678800195455551,-0.5604240298271179
1761139831729594600,1.5975947265625,-0.06409185379743576,0.16746266186237335,-0.5504970550537109
1761139831739652600,1.607652587890625,-0.029880356043577194,0.21423576772212982,-0.5029063820838928
1761139831749712000,1.6177119140625,-0.01319500245153904,0.22249631583690643,-0.4290090501308441
1761139831759770600,1.6277705078125,-0.011737720109522343,0.19651025533676147,-0.35770609974861145
1761139831769829600,1.63782958984375,-0.02849266305565834,0.15395283699035645,-0.2798486351966858
1761139831779887600,1.6478876953125,-0.06333532929420471,0.12505434453487396,-0.22137974202632904
1761139831789947000,1.65794677734375,-0.09559891372919083,0.12488831579685211,-0.17280039191246033
1761139831800005600,1.668005615234375,-0.11491642147302628,0.11515472084283829,-0.1650199592113495
1761139831810063600,1.678063720703125,-0.11932533234357834,0.07024271786212921,-0.18772892653942108
1761139831820122600,1.68812255859375,-0.10603455454111099,0.02815784513950348,-0.2109317183494568
1761139831830181600,1.698181640625,-0.06995588541030884,0.031130008399486542,-0.20647801458835602
1761139831840239900,1.708239990234375,-0.023409154266119003,0.046801645308732986,-0.1851133406162262
1761139831850298600,1.718298583984375,0.010200638324022293,0.052378565073013306,-0.1568739265203476
1761139831860358000,1.72835791015625,0.02931600995361805,0.04988398030400276,-0.11895236372947693
1761139831870416600,1.738416748046875,0.036435116082429886,0.07213626056909561,-0.057776741683483124
1761139831880474600,1.748474609375,0.030912255868315697,0.08319077640771866,0.003413381287828088
1761139831890533600,1.75853369140625,0.02078220807015896,0.09191235899925232,0.0532054677605629
1761139831900592600,1.768592529296875,0.004272473510354757,0.10417088866233826,0.07415682077407837
1761139831910650600,1.778650634765625,-0.015862474218010902,0.10834159702062607,0.06125367432832718
1761139831920709600,1.788709716796875,-0.03400446102023125,0.09329633414745331,0.0229899100959301
1761139831930768600,1.7987685546875,-0.03705384582281113,0.08982619643211365,-0.02255842089653015
1761139831940826600,1.80882666015625,-0.018270837143063545,0.11053626984357834,-0.049236636608839035
1761139831950886000,1.818885986328125,0.014054113999009132,0.1545083224773407,-0.051864009350538254
1761139831960944600,1.828944580078125,0.04675346985459328,0.1950102150440216,-0.03200108930468559
1761139831971002600,1.839002685546875,0.07569873332977295,0.23569589853286743,-0.007175675127655268
1761139831981061600,1.8490615234375,0.10652589052915573,0.29888924956321716,0.026501595973968506
1761139831991120600,1.85912060546875,0.14245490729808807,0.3928741216659546,0.07102656364440918
1761139832001179600,1.8691796875,0.1900077760219574,0.44406193494796753,0.1271127313375473
1761139832011237600,1.879237548828125,0.236129492521286,0.4180525243282318,0.17571870982646942
1761139832021296600,1.889296630859375,0.2645382285118103,0.3726397752761841,0.20624147355556488
1761139832031355600,1.899355712890625,0.283990740776062,0.3036050498485565,0.20897360146045685
1761139832041414000,1.909413818359375,0.28474628925323486,0.22859233617782593,0.16517633199691772
1761139832051472600,1.91947265625,0.26784154772758484,0.14053039252758026,0.06974324584007263
1761139832061532000,1.929531982421875,0.20612968504428864,0.0068000187166035175,-0.09195563942193985
1761139832071589600,1.939589599609375,0.10965652018785477,-0.16878916323184967,-0.3039810359477997
1761139832081648600,1.949648681640625,0.00036704784724861383,-0.3202178478240967,-0.5446469187736511
1761139832091707600,1.959707763671875,-0.07111391425132751,-0.41844478249549866,-0.7751897573471069
1761139832101766700,1.9697666015625,-0.08830461651086807,-0.4110278785228729,-0.9153199791908264
1761139832111824600,1.97982470703125,-0.09137490391731262,-0.27564626932144165,-0.9366428256034851
1761139832121883600,1.989883544921875,-0.09719577431678772,-0.18370437622070312,-0.8812320232391357
1761139832131942700,1.999942626953125,-0.09401091933250427,-0.18160231411457062,-0.753288745880127
1761139832142000600,2.010000732421875,-0.0626351535320282,-0.21051917970180511,-0.564551830291748
1761139832152060000,2.020059814453125,-0.03183438256382942,-0.21959908306598663,-0.3412725031375885
1761139832162118700,2.03011865234375,-0.06352999806404114,-0.21415823698043823,-0.12768645584583282
1761139832172176600,2.0401767578125,-0.16151063144207,-0.21296311914920807,0.034603819251060486
1761139832182235600,2.050235595703125,-0.2584872543811798,-0.13363207876682281,0.16773444414138794
1761139832192294700,2.060294677734375,-0.309378981590271,0.05027802288532257,0.29841139912605286
1761139832202353700,2.070353759765625,-0.33426859974861145,0.22251743078231812,0.3972298502922058
1761139832212411600,2.08041162109375,-0.31822681427001953,0.30222204327583313,0.45537108182907104
1761139832222470700,2.090470703125,-0.28058677911758423,0.268458753824234,0.467629611492157
1761139832232529700,2.10052978515625,-0.2507091462612152,0.08659911900758743,0.4167437255382538
1761139832242587600,2.110587646484375,-0.24009859561920166,-0.2087630182504654,0.30506008863449097
1761139832252646700,2.120646728515625,-0.24694208800792694,-0.47186538577079773,0.15747793018817902
1761139832262705700,2.13070556640625,-0.2683776319026947,-0.5388177633285522,0.01662200503051281
1761139832272763400,2.140763427734375,-0.2772592008113861,-0.3959917426109314,-0.10652289539575577
1761139832282822700,2.15082275390625,-0.27641311287879944,-0.1133376955986023,-0.1982666552066803
1761139832292881400,2.16088134765625,-0.24030037224292755,0.24598504602909088,-0.22819127142429352
1761139832302940700,2.170940673828125,-0.16826452314853668,0.589200496673584,-0.18387600779533386
1761139832312998700,2.18099853515625,-0.0798206478357315,0.784683108329773,-0.08431407064199448
1761139832323057700,2.1910576171875,-0.012289277277886868,0.8115206360816956,0.04508918896317482
1761139832333116400,2.201116455078125,0.010945722460746765,0.6887058615684509,0.17610277235507965
1761139832343174700,2.211174560546875,0.010318813845515251,0.4587128758430481,0.26993846893310547
1761139832353233700,2.221233642578125,-0.0012574986321851611,0.20413652062416077,0.3231180012226105
1761139832363292700,2.231292724609375,-0.006871175952255726,0.02280188538134098,0.3470739424228668
1761139832373350700,2.2413505859375,-0.022546106949448586,-0.034236639738082886,0.3575141429901123
1761139832383409400,2.251409423828125,-0.041303280740976334,0.03493364527821541,0.3474218249320984
1761139832393468700,2.26146875,-0.05495767667889595,0.18230262398719788,0.3285444974899292
1761139832403527400,2.27152734375,-0.043438442051410675,0.3515869975090027,0.3086293637752533
1761139832413585700,2.281585693359375,-0.013675668276846409,0.4875621497631073,0.28251418471336365
1761139832423644400,2.29164453125,0.011203848756849766,0.5495538711547852,0.25649136304855347
1761139832433703700,2.30170361328125,0.011184773407876492,0.564401388168335,0.2355489283800125
1761139832443761700,2.31176171875,0.007922934368252754,0.5286670923233032,0.23071050643920898
1761139832453820700,2.321820556640625,-0.002179266419261694,0.381143718957901,0.22175224125385284
1761139832463879700,2.331879638671875,-0.011766113340854645,0.17875784635543823,0.22024808824062347
1761139832473937400,2.3419375,-0.014172050170600414,-0.01044341642409563,0.23686407506465912
1761139832483996700,2.35199658203125,-0.030748361721634865,-0.17210420966148376,0.2532947063446045
1761139832494055400,2.362055419921875,-0.06397988647222519,-0.2831522226333618,0.2587381899356842
1761139832504114700,2.37211474609375,-0.09569387137889862,-0.31551867723464966,0.23228685557842255
1761139832514172700,2.382172607421875,-0.13180415332317352,-0.28526735305786133,0.16570058465003967
1761139832524231700,2.392231689453125,-0.17355239391326904,-0.1951015293598175,0.060627952218055725
1761139832534290400,2.40229052734375,-0.20840467512607574,-0.0780799463391304,-0.0700925961136818
1761139832544348400,2.412348388671875,-0.22118118405342102,0.03469134122133255,-0.19510270655155182
1761139832554407700,2.42240771484375,-0.2237621694803238,0.05361899361014366,-0.2998162806034088
1761139832564466400,2.432466552734375,-0.22428202629089355,0.024518366903066635,-0.35774537920951843
1761139832574524700,2.442524658203125,-0.2203679233789444,0.0024707792326807976,-0.3615441620349884
1761139832584583400,2.45258349609375,-0.2246665358543396,-0.006313657853752375,-0.32290834188461304
1761139832594642700,2.462642578125,-0.22560302913188934,-0.014227045699954033,-0.2740669250488281
1761139832604701400,2.472701416015625,-0.2317541241645813,-0.04144002124667168,-0.24256065487861633
1761139832614759700,2.482759765625,-0.24377186596393585,-0.10078088194131851,-0.22838899493217468
1761139832624818700,2.492818603515625,-0.2794228196144104,-0.18529070913791656,-0.23353102803230286
1761139832634877700,2.502877685546875,-0.3104128837585449,-0.23975540697574615,-0.23923824727535248
1761139832644935700,2.512935791015625,-0.33319807052612305,-0.25799989700317383,-0.2551802098751068
1761139832654994400,2.522994384765625,-0.33719155192375183,-0.2647256553173065,-0.27837464213371277
1761139832665053700,2.5330537109375,-0.3334415555000305,-0.23170670866966248,-0.2808407247066498
1761139832675111400,2.543111328125,-0.33268576860427856,-0.1977955847978592,-0.26879891753196716
1761139832685170700,2.553170654296875,-0.3294242024421692,-0.16799268126487732,-0.24402885138988495
1761139832695229400,2.5632294921875,-0.3281455338001251,-0.12292224913835526,-0.20535404980182648
1761139832705287700,2.57328759765625,-0.32928431034088135,-0.08413703739643097,-0.1668788343667984
1761139832715346700,2.5833466796875,-0.32253557443618774,-0.054860953241586685,-0.12620489299297333
1761139832725405700,2.59340576171875,-0.2992078959941864,-0.00720288697630167,-0.08438234776258469
1761139832735464400,2.60346435546875,-0.27777403593063354,0.04181879386305809,-0.047483641654253006
1761139832745522400,2.6135224609375,-0.2599146068096161,0.08613858371973038,-0.027802348136901855
1761139832755581700,2.623581787109375,-0.23676496744155884,0.12475085258483887,-0.033172499388456345
1761139832765640400,2.633640380859375,-0.21804161369800568,0.16702719032764435,-0.06107843294739723
1761139832775698700,2.64369873046875,-0.20431369543075562,0.21325986087322235,-0.09438636153936386
1761139832785757400,2.65375732421875,-0.18652378022670746,0.22733120620250702,-0.13377052545547485
1761139832795816700,2.663816650390625,-0.1602613925933838,0.21038678288459778,-0.1630672961473465
1761139832805875500,2.67387548828125,-0.12970295548439026,0.16789869964122772,-0.17809152603149414
1761139832815933700,2.68393359375,-0.10761639475822449,0.11846685409545898,-0.16777294874191284
1761139832825992700,2.69399267578125,-0.08669007569551468,0.06290825456380844,-0.13483019173145294
1761139832836051700,2.7040517578125,-0.07260856032371521,0.00453073438256979,-0.07472572475671768
1761139832846109700,2.714109619140625,-0.06335407495498657,-0.0483924001455307,-0.003327971091493964
1761139832856168400,2.72416845703125,-0.051206864416599274,-0.055882006883621216,0.08926347643136978
1761139832866227700,2.734227783203125,-0.03961518779397011,-0.0551789328455925,0.1982128620147705
1761139832876285400,2.744285400390625,-0.04271775856614113,-0.056076571345329285,0.3164277672767639
1761139832886344700,2.7543447265625,-0.04426984861493111,-0.06050780415534973,0.42483094334602356
1761139832896403500,2.764403564453125,-0.047417305409908295,-0.07769203931093216,0.5077266693115234
1761139832906461400,2.77446142578125,-0.04756271466612816,-0.14150190353393555,0.5453683137893677
1761139832916520700,2.784520751953125,-0.036555785685777664,-0.27801793813705444,0.5508789420127869
1761139832926579500,2.794579345703125,-0.034884385764598846,-0.4350443184375763,0.5201932191848755
1761139832936638700,2.804638671875,-0.04372376576066017,-0.5709890127182007,0.4645923972129822
1761139832946696400,2.814696533203125,-0.03927255794405937,-0.6462206244468689,0.3973987102508545
1761139832956755700,2.824755615234375,-0.013795129023492336,-0.670260488986969,0.32681581377983093
1761139832966814500,2.834814453125,-0.006285546813160181,-0.6722403168678284,0.21406210958957672
1761139832976872700,2.844872802734375,-0.03203680366277695,-0.6369115710258484,0.03807693347334862
1761139832986931500,2.854931396484375,-0.0894782543182373,-0.5693306922912598,-0.20999544858932495
1761139832996990700,2.86499072265625,-0.16526712477207184,-0.47002914547920227,-0.4920254647731781
1761139833007048700,2.875048583984375,-0.2199450135231018,-0.2825276851654053,-0.7301936149597168
1761139833017107500,2.885107421875,-0.254010409116745,-0.053129587322473526,-0.89111328125
1761139833027166700,2.895166748046875,-0.2682114541530609,0.15647955238819122,-0.9606020450592041
1761139833037225500,2.9052255859375,-0.2541762888431549,0.3328016698360443,-0.9410050511360168
1761139833047283700,2.91528369140625,-0.20728148519992828,0.506271243095398,-0.8451757431030273
1761139833057342500,2.925342529296875,-0.12500165402889252,0.6676903367042542,-0.6822388172149658
1761139833067401700,2.935401611328125,-0.01660780794918537,0.7861613631248474,-0.47457218170166016
1761139833077459500,2.94545947265625,0.08413353562355042,0.8406602740287781,-0.27427181601524353
1761139833087518700,2.955518798828125,0.14597292244434357,0.8140028119087219,-0.11939726769924164
1761139833097577500,2.965577392578125,0.15622976422309875,0.6884729862213135,-0.02484832890331745
1761139833107635500,2.975635498046875,0.12497064471244812,0.5401626229286194,0.014430101029574871
1761139833117694700,2.98569482421875,0.04782068356871605,0.4388585686683655,0.021835006773471832
1761139833127753500,2.99575341796875,-0.06588990241289139,0.37024059891700745,-0.003561961930245161
1761139833137812700,3.005812744140625,-0.1900385171175003,0.29086819291114807,-0.04796760901808739
1761139833147870500,3.015870361328125,-0.3020790219306946,0.14832624793052673,-0.09826380759477615
1761139833157929700,3.0259296875,-0.3839537799358368,0.005973448045551777,-0.11808806657791138
1761139833167988500,3.035988525390625,-0.43882447481155396,-0.10459993779659271,-0.10739254206418991
1761139833178046700,3.046046630859375,-0.4598623812198639,-0.180609792470932,-0.09048306196928024
1761139833188105500,3.05610546875,-0.42382529377937317,-0.22921061515808105,-0.07521302253007889
1761139833198164700,3.066164794921875,-0.32364556193351746,-0.21015959978103638,-0.052315663546323776
1761139833208222700,3.07622265625,-0.1909112185239792,-0.10526569187641144,-0.003655180800706148
1761139833218281500,3.086281494140625,-0.0564044713973999,0.05269959196448326,0.061331745237112045
1761139833228340700,3.0963408203125,0.04332984611392021,0.20813019573688507,0.11755693703889847
1761139833238399500,3.1063994140625,0.1170249730348587,0.34502315521240234,0.14285540580749512
1761139833248457700,3.116457763671875,0.1764877736568451,0.45493125915527344,0.1346379518508911
1761139833258516700,3.126516845703125,0.21391551196575165,0.5111432075500488,0.08989639580249786
1761139833268576000,3.136575927734375,0.22431515157222748,0.5173614621162415,0.021489106118679047
1761139833278633700,3.1466337890625,0.22653914988040924,0.48971423506736755,-0.04538003355264664
1761139833288693000,3.15669287109375,0.2064400017261505,0.4168379008769989,-0.11953654885292053
1761139833298751700,3.166751708984375,0.17026591300964355,0.292479932308197,-0.2075570970773697
1761139833308809700,3.176809814453125,0.12672455608844757,0.1617882251739502,-0.3043672442436218
1761139833318869000,3.186868896484375,0.1019100770354271,0.055738531053066254,-0.39652565121650696
1761139833328927700,3.196927734375,0.09983707219362259,0.001679559238255024,-0.47199884057044983
1761139833338986800,3.20698681640625,0.1028549075126648,-0.014808270148932934,-0.5348503589630127
1761139833349044700,3.217044677734375,0.11900005489587784,-0.0019161736126989126,-0.5934614539146423
1761139833359104000,3.22710400390625,0.16518740355968475,0.05666930228471756,-0.6434459090232849
1761139833369162800,3.237162841796875,0.24184410274028778,0.10811731964349747,-0.6897098422050476
1761139833379220700,3.247220703125,0.33522191643714905,0.14121317863464355,-0.6988841891288757
1761139833389279700,3.25727978515625,0.42638272047042847,0.15933598577976227,-0.677582323551178
1761139833399339000,3.267339111328125,0.5015596747398376,0.15920747816562653,-0.6371437907218933
1761139833409397000,3.27739697265625,0.5697765350341797,0.15605668723583221,-0.5693245530128479
1761139833419455700,3.287455810546875,0.619977593421936,0.1737278699874878,-0.47738325595855713
1761139833429515000,3.297514892578125,0.667060911655426,0.21728838980197906,-0.36850792169570923
1761139833439573800,3.30757373046875,0.6940637826919556,0.2815568447113037,-0.26071441173553467
1761139833449632000,3.317632080078125,0.6993224620819092,0.3325073719024658,-0.16816346347332
1761139833459690800,3.327690673828125,0.6911028623580933,0.32633844017982483,-0.09625829011201859
1761139833469750000,3.33775,0.663322389125824,0.3007230758666992,-0.04309014603495598
1761139833479807700,3.347807861328125,0.6136988401412964,0.2721465528011322,-0.004849845077842474
1761139833489866800,3.35786669921875,0.5569050312042236,0.23854254186153412,0.006137825082987547
1761139833499925800,3.36792578125,0.49945005774497986,0.17691223323345184,-0.0020681521855294704
1761139833509983700,3.377983642578125,0.4387499690055847,0.09185327589511871,0.0002695705625228584
1761139833520043000,3.38804296875,0.37447836995124817,-0.017598122358322144,0.013915371149778366
1761139833530101800,3.398101806640625,0.3030068576335907,-0.13667312264442444,0.05523111671209335
1761139833540160800,3.408160888671875,0.23538777232170105,-0.25230249762535095,0.10662983357906342
1761139833550218800,3.41821875,0.17433267831802368,-0.3656705915927887,0.15128998458385468
1761139833560278000,3.428278076171875,0.12271672487258911,-0.4602513313293457,0.18450717628002167
1761139833570336800,3.438336669921875,0.07916152477264404,-0.51925128698349,0.1971028596162796
1761139833580394800,3.448394775390625,0.042327478528022766,-0.5490705966949463,0.19291694462299347
1761139833590453800,3.458453857421875,0.011914446018636227,-0.5522032976150513,0.1753414124250412
1761139833600512800,3.4685126953125,0.020470699295401573,-0.5156762599945068,0.1721002757549286
1761139833610571000,3.478571044921875,0.06563764065504074,-0.4455328583717346,0.1962977647781372
1761139833620629800,3.488629638671875,0.12328196316957474,-0.3807102143764496,0.2341548502445221
1761139833630689000,3.49868896484375,0.17071393132209778,-0.3657118082046509,0.2724790573120117
1761139833640747800,3.508747802734375,0.20180644094944,-0.39880985021591187,0.30812835693359375
1761139833650806000,3.518805908203125,0.22075270116329193,-0.480692982673645,0.31876662373542786
1761139833660864800,3.52886474609375,0.236669659614563,-0.5804701447486877,0.31555283069610596
1761139833670924000,3.538924072265625,0.22370566427707672,-0.6146408915519714,0.27966564893722534
1761139833680981800,3.548981689453125,0.20679260790348053,-0.5525322556495667,0.24660629034042358
1761139833691040800,3.559040771484375,0.22151455283164978,-0.405997633934021,0.2452496737241745
1761139833701099800,3.569099853515625,0.2977243959903717,-0.21543757617473602,0.29144155979156494
1761139833711157800,3.57915771484375,0.425209641456604,0.018987972289323807,0.37523820996284485
1761139833721217000,3.589217041015625,0.5464068651199341,0.2084248661994934,0.4574384391307831
1761139833731275800,3.59927587890625,0.5964745283126831,0.27896878123283386,0.5026650428771973
1761139833741335000,3.6093349609375,0.5813193917274475,0.25158774852752686,0.500611424446106
1761139833751392800,3.619392822265625,0.5286290049552917,0.2246898114681244,0.4518555998802185
1761139833761452000,3.6294521484375,0.4233708083629608,0.15739451348781586,0.33766865730285645
1761139833771510800,3.6395107421875,0.2709716856479645,-0.00870631542056799,0.14964495599269867
1761139833781568800,3.64956884765625,0.07443466037511826,-0.2627909183502197,-0.10324845463037491
1761139833791627800,3.659627685546875,-0.14995743334293365,-0.5970248579978943,-0.3689544200897217
1761139833801686800,3.669686767578125,-0.3405768871307373,-0.935408353805542,-0.5388163328170776
1761139833811745000,3.6797451171875,-0.44063958525657654,-1.1221649646759033,-0.5325099229812622
1761139833821803800,3.6898037109375,-0.4238514304161072,-1.0669833421707153,-0.33228275179862976
1761139833831863000,3.699863037109375,-0.2982602119445801,-0.7419525384902954,0.01656179688870907
1761139833841921800,3.709921875,-0.08772195875644684,-0.3071453273296356,0.4040345549583435
1761139833851979800,3.719979736328125,0.1689167469739914,0.11442801356315613,0.715258777141571
1761139833862038800,3.730038818359375,0.4334184229373932,0.46585702896118164,0.9151415824890137
1761139833872097800,3.740097900390625,0.6568264961242676,0.7328381538391113,1.0061601400375366
1761139833882155800,3.75015576171875,0.816976010799408,0.9166572690010071,1.0314472913742065
1761139833892214800,3.76021484375,0.9217463731765747,0.989206850528717,1.0098226070404053
1761139833902273800,3.770273681640625,0.9860600829124451,0.971833348274231,0.9550469517707825
1761139833912331800,3.780331787109375,1.0157356262207031,0.9222903251647949,0.8861458897590637
1761139833922391000,3.79039111328125,0.9876725077629089,0.8710864782333374,0.7933440208435059
1761139833932449800,3.80044970703125,0.9160587787628174,0.8288713693618774,0.6846945285797119
1761139833942509000,3.810509033203125,0.8277130722999573,0.7830060124397278,0.5705285668373108
1761139833952566800,3.82056689453125,0.7345218658447266,0.6852890253067017,0.45612475275993347
1761139833962625800,3.830625732421875,0.6549505591392517,0.5232449173927307,0.3723730146884918
1761139833972684800,3.840684814453125,0.5730218887329102,0.3291555941104889,0.3398297429084778
1761139833982742800,3.85074267578125,0.4907867908477783,0.1473412662744522,0.35799551010131836
1761139833992801800,3.8608017578125,0.41087013483047485,0.01927250437438488,0.4095636010169983
1761139834002860800,3.87086083984375,0.3436078727245331,-0.08246324956417084,0.4473840892314911
1761139834012919000,3.8809189453125,0.2802946865558624,-0.17856581509113312,0.4305981993675232
1761139834022977800,3.890977783203125,0.22604970633983612,-0.25973862409591675,0.33714765310287476
1761139834033037000,3.901037109375,0.15801073610782623,-0.3421618640422821,0.15598025918006897
1761139834043095800,3.911095703125,0.06924585998058319,-0.42564570903778076,-0.06744753569364548
1761139834053153800,3.92115380859375,0.006323358044028282,-0.4315078556537628,-0.2592758238315582
1761139834063212800,3.931212890625,-0.033647578209638596,-0.3797157406806946,-0.37322133779525757
1761139834073271800,3.941271728515625,-0.05119035020470619,-0.29435211420059204,-0.39580094814300537
1761139834083329800,3.951329833984375,-0.039773810654878616,-0.15295757353305817,-0.31490570306777954
1761139834093388800,3.961388916015625,0.007480783853679895,0.024073122069239616,-0.16082292795181274
1761139834103447800,3.97144775390625,0.0953890010714531,0.19993402063846588,0.03026639297604561
1761139834113505800,3.981505859375,0.19860807061195374,0.3478555679321289,0.2231956273317337
1761139834123565000,3.99156494140625,0.28159424662590027,0.42656829953193665,0.3845108151435852
1761139834133623800,4.001623779296875,0.32837533950805664,0.43656688928604126,0.4926902949810028
1761139834143683000,4.01168310546875,0.34939566254615784,0.3805006146430969,0.534938395023346
1761139834153740800,4.02174072265625,0.3274152874946594,0.2679080367088318,0.51535564661026
1761139834163799800,4.0317998046875,0.2761004865169525,0.14390815794467926,0.44550737738609314
1761139834173858800,4.04185888671875,0.21665632724761963,0.05061335861682892,0.3561822772026062
1761139834183916800,4.051916748046875,0.1524602323770523,-0.007389416918158531,0.2530873715877533
1761139834193975800,4.061975830078125,0.1136888787150383,-0.040262676775455475,0.1569555252790451
1761139834204034800,4.072034912109375,0.10896573960781097,-0.03301473334431648,0.08306895941495895
1761139834214092800,4.0820927734375,0.11476504057645798,-0.015243194997310638,0.023618150502443314
1761139834224151800,4.09215185546875,0.14718802273273468,-0.0007721865549683571,-0.033232953399419785
1761139834234210800,4.1022109375,0.19825120270252228,0.015745270997285843,-0.07704594731330872
1761139834244269800,4.112269775390625,0.23877876996994019,0.033134184777736664,-0.13324330747127533
1761139834254327600,4.12232763671875,0.2493283450603485,0.02540436014533043,-0.1894168257713318
1761139834264386300,4.13238623046875,0.23285585641860962,0.009939461946487427,-0.24884173274040222
1761139834274445600,4.142445556640625,0.20807726681232452,-0.02710697427392006,-0.32163870334625244
1761139834284503600,4.152503662109375,0.17504985630512238,-0.05586652830243111,-0.394344687461853
1761139834294562300,4.162562255859375,0.1424543559551239,-0.039905935525894165,-0.45258989930152893
1761139834304621600,4.17262158203125,0.12564852833747864,-0.006072256714105606,-0.4898703694343567
1761139834314679300,4.18267919921875,0.13304945826530457,0.028163742274045944,-0.49677062034606934
1761139834324738600,4.192738525390625,0.16519922018051147,0.05389014258980751,-0.48271843791007996
1761139834334797300,4.20279736328125,0.20703907310962677,0.05581960082054138,-0.4481756389141083
1761139834344856600,4.212856689453125,0.2526116371154785,0.038148730993270874,-0.3850102424621582
1761139834354914300,4.222914306640625,0.30004891753196716,0.0071348887868225574,-0.2913482189178467
1761139834364973300,4.232973388671875,0.3364379405975342,-0.028261221945285797,-0.17549170553684235
1761139834375032300,4.2430322265625,0.35158732533454895,-0.08355537056922913,-0.054343707859516144
1761139834385090300,4.25309033203125,0.349541038274765,-0.12531331181526184,0.05950387567281723
1761139834395149600,4.263149658203125,0.3266535699367523,-0.16060712933540344,0.1445111781358719
1761139834405208300,4.273208251953125,0.29827776551246643,-0.20044630765914917,0.1938764899969101
1761139834415266600,4.2832666015625,0.26725515723228455,-0.22671999037265778,0.19731275737285614
1761139834425325300,4.2933251953125,0.22261187434196472,-0.2551977336406708,0.15235082805156708
1761139834435384600,4.303384521484375,0.1911546140909195,-0.24755313992500305,0.06828495115041733
1761139834445443300,4.313443359375,0.18270018696784973,-0.1623617261648178,-0.03212251141667366
1761139834455501300,4.323501220703125,0.1940401792526245,-0.061677999794483185,-0.12142868340015411
1761139834465560300,4.333560302734375,0.2285255342721939,0.05375383049249649,-0.18222330510616302
1761139834475619300,4.343619384765625,0.2980119287967682,0.16004538536071777,-0.17737261950969696
1761139834485677600,4.353677490234375,0.3720858097076416,0.15399642288684845,-0.13687805831432343
1761139834495736300,4.363736328125,0.4290532171726227,0.056630998849868774,-0.06328878551721573
1761139834505795600,4.373795654296875,0.4636445641517639,-0.04913180321455002,0.023453690111637115
1761139834515853300,4.383853271484375,0.4820494055747986,-0.11364049464464188,0.09257736802101135
1761139834525912600,4.39391259765625,0.5019004344940186,-0.11031736433506012,0.1396796554327011
1761139834535971300,4.403971435546875,0.5278017520904541,-0.10098378360271454,0.13091625273227692
1761139834546030600,4.414030517578125,0.5449821352958679,-0.20987170934677124,0.03627489507198334
1761139834556088300,4.42408837890625,0.5427421927452087,-0.4625748097896576,-0.13767746090888977
1761139834566147300,4.434147216796875,0.5228952765464783,-0.7573564648628235,-0.3293055593967438
1761139834576206300,4.444206298828125,0.4801347851753235,-0.9878735542297363,-0.4604278802871704
1761139834586264300,4.454264404296875,0.40228360891342163,-1.0707404613494873,-0.5031241178512573
1761139834596323600,4.464323486328125,0.32773080468177795,-1.0046861171722412,-0.4655083119869232
1761139834606382300,4.47438232421875,0.28647544980049133,-0.8233405351638794,-0.3602010905742645
1761139834616440600,4.484440673828125,0.28244954347610474,-0.543487548828125,-0.2153634876012802
1761139834626499300,4.494499267578125,0.27819281816482544,-0.21986469626426697,-0.09249214082956314
1761139834636558600,4.50455859375,0.30605772137641907,0.024305889382958412,-0.015113727189600468
1761139834646617300,4.514617431640625,0.3544541895389557,0.18149246275424957,0.03411787748336792
1761139834656675300,4.52467529296875,0.39688581228256226,0.2963676452636719,0.08390700072050095
1761139834666734300,4.534734375,0.42106130719184875,0.4012657403945923,0.12821584939956665
1761139834676793300,4.54479345703125,0.424217164516449,0.4839659333229065,0.14694638550281525
1761139834686851600,4.5548515625,0.391698956489563,0.5476040244102478,0.137254536151886
1761139834696910300,4.564910400390625,0.32261043787002563,0.6086820363998413,0.08039364963769913
1761139834706969600,4.574969482421875,0.2370665967464447,0.691514253616333,-0.02213144488632679
1761139834717027300,4.58502734375,0.13827663660049438,0.7918866872787476,-0.17115634679794312
1761139834727086600,4.595086669921875,0.06159970909357071,0.886012077331543,-0.35190722346305847
1761139834737145300,4.605145263671875,0.027212440967559814,0.917248010635376,-0.5086824297904968
1761139834747203300,4.615203369140625,0.019981561228632927,0.8433098196983337,-0.6065070629119873
1761139834757262600,4.6252626953125,0.011851463466882706,0.7012379169464111,-0.6043163537979126
1761139834767321300,4.6353212890625,-0.011580443941056728,0.5267267823219299,-0.488879531621933
1761139834777380400,4.64538037109375,-0.04452454298734665,0.3693965673446655,-0.27403727173805237
1761139834787438300,4.655438232421875,-0.0748952180147171,0.28092649579048157,0.017586426809430122
1761139834797497600,4.66549755859375,-0.11396565288305283,0.26047712564468384,0.33674633502960205
1761139834807556400,4.675556396484375,-0.1688328981399536,0.2565862536430359,0.6001142859458923
1761139834817614300,4.6856142578125,-0.2654060423374176,0.16039715707302094,0.7272445559501648
1761139834827673300,4.69567333984375,-0.3793048858642578,0.01795649528503418,0.7229297757148743
1761139834837732400,4.705732421875,-0.5058058500289917,-0.11791878193616867,0.6177636981010437
1761139834847791400,4.715791259765625,-0.627822756767273,-0.23768390715122223,0.44157344102859497
1761139834857849300,4.725849365234375,-0.7139959931373596,-0.3352658748626709,0.2548182010650635
1761139834867908400,4.735908447265625,-0.7430317401885986,-0.4034160077571869,0.11775048822164536
1761139834877967400,4.74596728515625,-0.7305327653884888,-0.3739164471626282,0.04488533362746239
1761139834888025600,4.756025634765625,-0.6555727124214172,-0.2742173373699188,0.0510675273835659
1761139834898084400,4.76608447265625,-0.5230622887611389,-0.12573732435703278,0.12266767024993896
1761139834908143600,4.7761435546875,-0.3717217445373535,0.026779811829328537,0.22345314919948578
1761139834918201300,4.786201416015625,-0.2418297678232193,0.09425206482410431,0.28823935985565186
1761139834928260400,4.79626025390625,-0.16342157125473022,0.051446620374917984,0.27875375747680664
1761139834938319400,4.8063193359375,-0.12766623497009277,-0.047100991010665894,0.21586401760578156
1761139834948377300,4.81637744140625,-0.13013866543769836,-0.20342782139778137,0.12605524063110352
1761139834958436600,4.8264365234375,-0.18245433270931244,-0.42604467272758484,0.015559086576104164
1761139834968495400,4.836495361328125,-0.2800702750682831,-0.6838287115097046,-0.09842141717672348
1761139834978554400,4.846554443359375,-0.38098302483558655,-0.8723889589309692,-0.1850159615278244
1761139834988612400,4.8566123046875,-0.4292384088039398,-0.8843943476676941,-0.20102989673614502
1761139834998671600,4.866671630859375,-0.406696617603302,-0.6915388703346252,-0.12069644778966904
1761139835008730400,4.87673046875,-0.34711402654647827,-0.3496819734573364,0.015815751627087593
1761139835018788400,4.886788330078125,-0.2535552978515625,0.059153467416763306,0.17339739203453064
1761139835028847400,4.896847412109375,-0.13596877455711365,0.42428454756736755,0.34071484208106995
1761139835038906400,4.90690625,-0.02797492779791355,0.6395729184150696,0.4999833405017853
1761139835048965400,4.91696533203125,0.019877878949046135,0.69810551404953,0.6193885803222656
1761139835059023400,4.9270234375,0.04259198158979416,0.62548828125,0.6902837753295898
1761139835069082600,4.93708251953125,0.043059881776571274,0.5021761059761047,0.7415934801101685
1761139835079141400,4.947141357421875,0.027725934982299805,0.37790900468826294,0.7812274694442749
1761139835089199600,4.95719970703125,0.005749908275902271,0.27064764499664307,0.8030398488044739
1761139835099258400,4.96725830078125,-0.02070433460175991,0.17255143821239471,0.804086446762085
1761139835109317600,4.977317626953125,-0.03697897866368294,0.1195167824625969,0.7835088968276978
1761139835119375400,4.987375244140625,-0.04759353771805763,0.10037478059530258,0.7167682647705078
1761139835129434400,4.997434326171875,-0.039971206337213516,0.11032633483409882,0.6059139966964722
1761139835139493400,5.007493408203125,-0.003965799231082201,0.11022166907787323,0.47157055139541626
1761139835149552400,5.017552490234375,0.039200309664011,0.09129048138856888,0.3358634412288666
1761139835159610600,5.027610595703125,0.09816136956214905,0.07996032387018204,0.2365006059408188
1761139835169669400,5.03766943359375,0.16860729455947876,0.0841834545135498,0.1965901106595993
1761139835179728400,5.047728271484375,0.2406149059534073,0.10086682438850403,0.19998911023139954
1761139835189786400,5.057786376953125,0.30061328411102295,0.12114980071783066,0.21948063373565674
1761139835199845400,5.067845458984375,0.3366730213165283,0.1543479561805725,0.24271751940250397
1761139835209904400,5.077904296875,0.3338005244731903,0.18187811970710754,0.23035751283168793
1761139835219962400,5.08796240234375,0.2975224256515503,0.18853574991226196,0.18584783375263214
1761139835230021400,5.098021484375,0.23220670223236084,0.16048644483089447,0.10724423825740814
1761139835240080400,5.108080322265625,0.138983815908432,0.11581004410982132,0.024950169026851654
1761139835250139400,5.118139404296875,0.060942940413951874,0.09080890566110611,-0.0002006813883781433
1761139835260198000,5.128197998046875,0.016138184815645218,0.10581129044294357,0.02544981986284256
1761139835270256600,5.138256591796875,-0.0006642149528488517,0.12564155459403992,0.08643230050802231
1761139835280316000,5.14831591796875,0.0015834930818527937,0.11392445862293243,0.16022850573062897
1761139835290374000,5.158373779296875,0.01845598593354225,0.04622974619269371,0.2240397185087204
1761139835300433000,5.168432861328125,0.027136294171214104,-0.058385077863931656,0.2661046087741852
1761139835310492000,5.178491943359375,0.022521866485476494,-0.16766498982906342,0.28630247712135315
1761139835320549600,5.188549560546875,0.008534678258001804,-0.28265097737312317,0.289751261472702
1761139835330609000,5.19860888671875,-0.008289741352200508,-0.3290170431137085,0.29958274960517883
1761139835340667600,5.208667724609375,-0.03494931757450104,-0.3161925673484802,0.30572211742401123
1761139835350727000,5.218726806640625,-0.07370001077651978,-0.28437352180480957,0.29432258009910583
1761139835360785000,5.228784912109375,-0.08912530541419983,-0.19441750645637512,0.2817727029323578
1761139835370844000,5.238843994140625,-0.050350792706012726,-0.059827934950590134,0.2927418053150177
1761139835380902700,5.248902587890625,0.040095750242471695,0.06993831694126129,0.33674922585487366
1761139835390961000,5.2589609375,0.1433236300945282,0.1937045305967331,0.4186505675315857
1761139835401020000,5.26902001953125,0.24486570060253143,0.32101136445999146,0.5275664329528809
1761139835411079000,5.279078857421875,0.32708483934402466,0.42754146456718445,0.6472228765487671
1761139835421137000,5.289136962890625,0.365020751953125,0.4828859567642212,0.7576758861541748
1761139835431195600,5.299195556640625,0.3505657911300659,0.4396648705005646,0.834246039390564
1761139835441255000,5.3092548828125,0.29454511404037476,0.3562256395816803,0.8738365769386292
1761139835451313700,5.319313720703125,0.2367662936449051,0.30718231201171875,0.8842479586601257
1761139835461372000,5.329371826171875,0.1975800096988678,0.3067189157009125,0.866295576095581
1761139835471430700,5.3394306640625,0.17432916164398193,0.3331787586212158,0.7951573729515076
1761139835481490000,5.349489990234375,0.16277556121349335,0.3345327079296112,0.6675690412521362
1761139835491548000,5.3595478515625,0.16583482921123505,0.2580420970916748,0.4701673686504364
1761139835501607000,5.36960693359375,0.17232868075370789,0.10902998596429825,0.21325942873954773
1761139835511666000,5.379666015625,0.17743712663650513,-0.07037611305713654,-0.07110607624053955
1761139835521723600,5.3897236328125,0.1916205883026123,-0.22484025359153748,-0.34233492612838745
1761139835531783000,5.399782958984375,0.22772055864334106,-0.2959529459476471,-0.5420841574668884
1761139835541841700,5.409841552734375,0.267403781414032,-0.18717770278453827,-0.6548115015029907
1761139835551901000,5.41990087890625,0.30057623982429504,0.034189142286777496,-0.6844603419303894
1761139835561959000,5.429958984375,0.32920041680336,0.27925267815589905,-0.6401429772377014
1761139835572018000,5.440017822265625,0.3725147545337677,0.5470947027206421,-0.5139617323875427
1761139835582076700,5.45007666015625,0.41702255606651306,0.7896569967269897,-0.3332294821739197
1761139835592135000,5.460135009765625,0.4572446346282959,0.9713177680969238,-0.12856118381023407
1761139835602194000,5.47019384765625,0.4896683692932129,1.0900795459747314,0.07087311148643494
1761139835612253000,5.4802529296875,0.5134422183036804,1.084494709968567,0.2399037629365921
1761139835622311000,5.490310791015625,0.5416826009750366,0.9822834134101868,0.3686505854129791
1761139835632369700,5.50036962890625,0.5723804235458374,0.8738144040107727,0.47246646881103516
1761139835642429000,5.510428955078125,0.6078428030014038,0.8174422383308411,0.5426445007324219
1761139835652487000,5.52048681640625,0.6599067449569702,0.7980520725250244,0.5747131705284119
1761139835662546000,5.5305458984375,0.7178059816360474,0.7976797223091125,0.5565166473388672
1761139835672604700,5.540604736328125,0.7874062657356262,0.7733018398284912,0.4861573874950409
1761139835682664000,5.550663818359375,0.8641713261604309,0.6929414868354797,0.3676983714103699
1761139835692722000,5.560721923828125,0.9098126888275146,0.49392378330230713,0.21682189404964447
1761139835702780700,5.57078076171875,0.9273959398269653,0.22582976520061493,0.0896327942609787
1761139835712840000,5.58083984375,0.8883472084999084,-0.06400902569293976,0.022677674889564514
1761139835722897700,5.590897705078125,0.776161253452301,-0.46381235122680664,-0.0044881668873131275
1761139835732957000,5.60095703125,0.6184664368629456,-0.7898876667022705,0.011735278181731701
1761139835743015700,5.611015625,0.4593399167060852,-0.9206587076187134,0.05684949457645416
1761139835753074000,5.621073974609375,0.3342573344707489,-0.8889384269714355,0.08831703662872314
1761139835763133000,5.6311328125,0.26578694581985474,-0.8122085332870483,0.060267023742198944
1761139835773192000,5.64119189453125,0.2588319182395935,-0.6660900712013245,0.013312963768839836
1761139835783250700,5.651250732421875,0.2923818826675415,-0.41665175557136536,-0.026272261515259743
1761139835793308700,5.66130859375,0.348657488822937,-0.1276988685131073,-0.06690284609794617
1761139835803368000,5.671367919921875,0.4257999360561371,0.1498403251171112,-0.10655571520328522
1761139835813426700,5.6814267578125,0.5290379524230957,0.3995946943759918,-0.13558779656887054
1761139835823485000,5.69148486328125,0.6269823908805847,0.5931463241577148,-0.1632756143808365
1761139835833543700,5.701543701171875,0.6932862997055054,0.716171383857727,-0.19152766466140747
1761139835843603000,5.71160302734375,0.7266727685928345,0.7612528800964355,-0.2160806804895401
1761139835853661000,5.721660888671875,0.7397710680961609,0.7481215596199036,-0.2591727674007416
1761139835863720000,5.731719970703125,0.7429612874984741,0.7291001677513123,-0.32707110047340393
1761139835873779000,5.741779052734375,0.7442957758903503,0.7191333770751953,-0.40929803252220154
1761139835883838000,5.751837890625,0.7269096374511719,0.730070173740387,-0.49413198232650757
1761139835893896000,5.76189599609375,0.714766263961792,0.7437185645103455,-0.5759893655776978
1761139835903954700,5.77195458984375,0.7190225720405579,0.7064939141273499,-0.6568716764450073
1761139835914014000,5.782013916015625,0.7459256052970886,0.626695990562439,-0.7197321653366089
1761139835924071700,5.79207177734375,0.785791277885437,0.5672851204872131,-0.7719751596450806
1761139835934131000,5.802130859375,0.8280154466629028,0.5316842794418335,-0.8206534385681152
1761139835944189700,5.812189697265625,0.8774514198303223,0.5177311897277832,-0.8807311654090881
1761139835954248000,5.822248046875,0.9266870021820068,0.5272341370582581,-0.9575349688529968
1761139835964307000,5.832306884765625,0.9576106071472168,0.5471662878990173,-1.0471577644348145
1761139835974366000,5.842365966796875,0.9508019685745239,0.5501575469970703,-1.1343834400177002
1761139835984424700,5.8524248046875,0.9120974540710449,0.5098455548286438,-1.1920222043991089
1761139835994482700,5.862482666015625,0.8621490001678467,0.4735161066055298,-1.1859861612319946
1761139836004542000,5.8725419921875,0.8183903098106384,0.4232414960861206,-1.088466763496399
1761139836014600700,5.8826005859375,0.767433226108551,0.3097780644893646,-0.9194309711456299
1761139836024659000,5.892658935546875,0.6904478669166565,0.16899988055229187,-0.7161260843276978
1761139836034717700,5.9027177734375,0.60272616147995,0.008986055850982666,-0.5236214399337769
1761139836044777000,5.91277685546875,0.5276612043380737,-0.18654029071331024,-0.37045609951019287
1761139836054835000,5.9228349609375,0.47449618577957153,-0.37340033054351807,-0.27306070923805237
1761139836064894000,5.93289404296875,0.43456926941871643,-0.5016615986824036,-0.23180247843265533
1761139836074953000,5.942952880859375,0.40398040413856506,-0.5486354827880859,-0.24723969399929047
1761139836085010700,5.9530107421875,0.38552311062812805,-0.521808922290802,-0.3123718202114105
1761139836095070000,5.963070068359375,0.3894668221473694,-0.4410245716571808,-0.402987539768219
1761139836105128700,5.973128662109375,0.4092456102371216,-0.33869874477386475,-0.5043466091156006
1761139836115188000,5.98318798828125,0.4259456694126129,-0.23501326143741608,-0.5999840497970581
1761139836125245700,5.99324560546875,0.4447062909603119,-0.13456813991069794,-0.6555858254432678
1761139836135305000,6.003304931640625,0.4603336453437805,-0.029646212235093117,-0.6569933295249939
1761139836145363700,6.01336376953125,0.47405290603637695,0.07946855574846268,-0.5974277257919312
1761139836155421700,6.023421630859375,0.48960262537002563,0.14689168334007263,-0.4923684895038605
1761139836165481000,6.03348095703125,0.5026044249534607,0.16938501596450806,-0.3735867142677307
1761139836175539700,6.043539794921875,0.5192926526069641,0.17015965282917023,-0.23948809504508972
1761139836185598000,6.053597900390625,0.5365158319473267,0.1441783905029297,-0.11806180328130722
1761139836195656700,6.06365673828125,0.5524522066116333,0.09974978119134903,-0.020680563524365425
1761139836205716000,6.073716064453125,0.5612545013427734,0.054058194160461426,0.04336899146437645
1761139836215774700,6.083774658203125,0.5648890137672424,0.014914026483893394,0.0896744579076767
1761139836225833000,6.0938330078125,0.5659076571464539,-0.03167371451854706,0.10547073185443878
1761139836235891700,6.1038916015625,0.5666473507881165,-0.0803629606962204,0.10050423443317413
1761139836245951000,6.113950927734375,0.5769777297973633,-0.12390058487653732,0.08902974426746368
1761139836256008400,6.124008544921875,0.6018040776252747,-0.16621136665344238,0.07289520651102066
1761139836266067200,6.134067138671875,0.6406715512275696,-0.18935823440551758,0.061301395297050476
1761139836276126500,6.14412646484375,0.6648699045181274,-0.17563636600971222,0.05266309529542923
1761139836286184200,6.15418408203125,0.683274507522583,-0.16272270679473877,0.049330681562423706
1761139836296243500,6.164243408203125,0.7204594016075134,-0.1821189969778061,0.07224451005458832
1761139836306302200,6.17430224609375,0.7525103092193604,-0.23362453281879425,0.1280156373977661
1761139836316360200,6.184360107421875,0.8000092506408691,-0.3078332543373108,0.22211024165153503
1761139836326419500,6.19441943359375,0.8627962470054626,-0.2829984724521637,0.3587450385093689
1761139836336478200,6.204478271484375,0.9282429218292236,-0.13800859451293945,0.5039089918136597
1761139836346537500,6.214537353515625,1.0123612880706787,-0.049529336392879486,0.6194379925727844
1761139836356595200,6.22459521484375,1.1322740316390991,-0.136506125330925,0.6711288690567017
1761139836366654500,6.234654541015625,1.2207071781158447,-0.41344690322875977,0.6105417013168335
1761139836376713200,6.244713134765625,1.2427517175674438,-0.8356119990348816,0.4262731969356537
1761139836386771500,6.254771484375,1.2351715564727783,-1.2902864217758179,0.17318181693553925
1761139836396830200,6.264830322265625,1.1990445852279663,-1.7050247192382812,-0.09600992500782013
1761139836406889500,6.274889404296875,1.1234608888626099,-1.9711610078811646,-0.32829856872558594
1761139836416947500,6.284947509765625,1.0101878643035889,-2.0826730728149414,-0.46173954010009766
1761139836427006200,6.295006103515625,0.8793749213218689,-1.9875072240829468,-0.4565354585647583
1761139836437065500,6.3050654296875,0.7301726341247559,-1.7124497890472412,-0.36112648248672485
1761139836447124200,6.315124267578125,0.5920634865760803,-1.311919927597046,-0.21344886720180511
1761139836457182500,6.325182373046875,0.48626023530960083,-0.833670437335968,-0.03037906065583229
1761139836467241200,6.3352412109375,0.4225510060787201,-0.3289063572883606,0.16706237196922302
1761139836477300500,6.345300537109375,0.4023807644844055,0.20841744542121887,0.3636285066604614
1761139836487358200,6.355358154296875,0.4394240081310272,0.6617564558982849,0.5244647860527039
1761139836497417500,6.36541748046875,0.5135489702224731,0.9443806409835815,0.6245567798614502
1761139836507476200,6.375476318359375,0.6062315106391907,1.1070424318313599,0.6517997980117798
1761139836517534200,6.3855341796875,0.6820948123931885,1.1747288703918457,0.6233553886413574
1761139836527593500,6.395593505859375,0.7254614233970642,1.1624311208724976,0.5412030220031738
1761139836537652200,6.40565234375,0.7459824681282043,1.0675723552703857,0.44289591908454895
1761139836547710500,6.41571044921875,0.7421752214431763,0.8705828785896301,0.35730406641960144
1761139836557769200,6.425769287109375,0.7285505533218384,0.6307101845741272,0.3227110505104065
1761139836567828500,6.435828369140625,0.7027503848075867,0.430143266916275,0.33781197667121887
1761139836577887200,6.44588720703125,0.6568853259086609,0.2999773323535919,0.37176093459129333
1761139836587945500,6.455945556640625,0.583204448223114,0.177267923951149,0.37576207518577576
1761139836598004200,6.466004150390625,0.4802350401878357,0.05500335246324539,0.3250312805175781
1761139836608063500,6.4760634765625,0.3794277310371399,-0.010860085487365723,0.2573947310447693
1761139836618121500,6.48612158203125,0.2974017858505249,0.0009099398739635944,0.2084687352180481
1761139836628180200,6.49618017578125,0.20781677961349487,0.06509771198034286,0.16014620661735535
1761139836638239500,6.506239501953125,0.11431268602609634,0.1313062608242035,0.11023927479982376
1761139836648297200,6.516297119140625,0.015832453966140747,0.15942472219467163,0.041546765714883804
1761139836658356500,6.5263564453125,-0.08531602472066879,0.12142491340637207,-0.03997527062892914
1761139836668415200,6.536415283203125,-0.16626253724098206,0.053386203944683075,-0.10292094945907593
1761139836678474500,6.546474609375,-0.21539050340652466,-0.00380305340513587,-0.1324407011270523
1761139836688532500,6.556532470703125,-0.22485297918319702,-0.0027662846259772778,-0.12703661620616913
1761139836698591200,6.56659130859375,-0.1993422508239746,0.05826614052057266,-0.09124806523323059
1761139836708650200,6.576650146484375,-0.15494228899478912,0.16254834830760956,-0.04503582790493965
1761139836718708200,6.586708251953125,-0.09995540231466293,0.28497225046157837,-0.013550042174756527
1761139836728767500,6.596767578125,-0.058507826179265976,0.37311726808547974,-0.009229596704244614
1761139836738826200,6.606826171875,-0.04593547433614731,0.42611271142959595,-0.0337020605802536
1761139836748884500,6.616884521484375,-0.05712900683283806,0.4708106815814972,-0.08350770175457001
1761139836758943200,6.626943115234375,-0.08289157599210739,0.5116501450538635,-0.15534761548042297
1761139836769002500,6.63700244140625,-0.10626427829265594,0.5099590420722961,-0.2619518041610718
1761139836779061200,6.647061279296875,-0.12773552536964417,0.4746339023113251,-0.3695506155490875
1761139836789119200,6.657119140625,-0.1550172120332718,0.44974371790885925,-0.4747020900249481
1761139836799178200,6.66717822265625,-0.1902390569448471,0.42082053422927856,-0.5691590309143066
1761139836809237200,6.6772373046875,-0.21508608758449554,0.37155258655548096,-0.6476770043373108
1761139836819295500,6.68729541015625,-0.23105914890766144,0.35806265473365784,-0.6949137449264526
1761139836829354200,6.697354248046875,-0.2349178045988083,0.3734954297542572,-0.7122287750244141
1761139836839413500,6.70741357421875,-0.22726212441921234,0.37770459055900574,-0.7170214653015137
1761139836849471200,6.71747119140625,-0.20585936307907104,0.3936055302619934,-0.6975928544998169
1761139836859530500,6.727530517578125,-0.17085835337638855,0.4075954258441925,-0.662947952747345
1761139836869589200,6.73758935546875,-0.13497813045978546,0.38989657163619995,-0.6485533118247986
1761139836879647200,6.747647216796875,-0.09944938123226166,0.3751318156719208,-0.6458739042282104
1761139836889706500,6.75770654296875,-0.06347113847732544,0.37629109621047974,-0.6492201685905457
1761139836899765200,6.76776513671875,-0.026833832263946533,0.40663379430770874,-0.6507062315940857
1761139836909824300,6.77782421875,0.017562659457325935,0.44990241527557373,-0.6538774967193604
1761139836919882200,6.78788232421875,0.05726772919297218,0.4733041524887085,-0.6601444482803345
1761139836929941500,6.79794140625,0.11039912700653076,0.48937472701072693,-0.6607348918914795
1761139836940000300,6.808000244140625,0.16966114938259125,0.5039686560630798,-0.6269781589508057
1761139836950058500,6.81805859375,0.23377808928489685,0.48462215065956116,-0.5641147494316101
1761139836960117200,6.8281171875,0.2983790338039398,0.44404932856559753,-0.4759862720966339
1761139836970176500,6.838176513671875,0.3645828366279602,0.3938143849372864,-0.36980095505714417
1761139836980234500,6.848234375,0.42941170930862427,0.331930935382843,-0.26400330662727356
1761139836990293200,6.858293212890625,0.4737245738506317,0.2684755325317383,-0.18244454264640808
1761139837000352300,6.868352294921875,0.5016707181930542,0.23234480619430542,-0.12497902661561966
1761139837010411300,6.878411376953125,0.5202404260635376,0.21443584561347961,-0.10077168792486191
1761139837020469500,6.888469482421875,0.5322039127349854,0.1915961503982544,-0.10546036064624786
1761139837030528300,6.8985283203125,0.5437201857566833,0.16405081748962402,-0.13322274386882782
1761139837040587500,6.90858740234375,0.5388750433921814,0.13047131896018982,-0.19310228526592255
1761139837050645200,6.918645263671875,0.5240137577056885,0.056273527443408966,-0.2743760943412781
1761139837060704300,6.928704345703125,0.5049462914466858,-0.04976130276918411,-0.3494987487792969
1761139837070763300,6.93876318359375,0.510989248752594,-0.13003882765769958,-0.38631296157836914
1761139837080821200,6.9488212890625,0.5442922711372375,-0.14315803349018097,-0.37947043776512146
1761139837090880500,6.958880615234375,0.5821075439453125,-0.11460094153881073,-0.3563627004623413
1761139837100939300,6.968939208984375,0.6257684826850891,-0.06901124119758606,-0.33918657898902893
1761139837110997500,6.97899755859375,0.6733610033988953,-0.02712317556142807,-0.3257485330104828
1761139837121056300,6.98905615234375,0.721023678779602,0.03280065208673477,-0.28634196519851685
1761139837131115500,6.999115478515625,0.7622315883636475,0.10259357839822769,-0.21200168132781982
1761139837141174300,7.00917431640625,0.7990155816078186,0.16354922950267792,-0.09047484397888184
1761139837151232300,7.019232177734375,0.84486323595047,0.21346032619476318,0.06775527447462082
1761139837161291300,7.029291259765625,0.8945090770721436,0.23793268203735352,0.23834626376628876
1761139837171350300,7.039350341796875,0.9446902275085449,0.170333132147789,0.3912857472896576
1761139837181408500,7.049408447265625,1.0038657188415527,0.05932812765240669,0.5022592544555664
1761139837191467300,7.05946728515625,1.0722987651824951,-0.0612797774374485,0.6047150492668152
1761139837201526500,7.069526611328125,1.1185520887374878,-0.1744343638420105,0.6911936402320862
1761139837211584300,7.079584228515625,1.1212029457092285,-0.2621471881866455,0.751965343952179
1761139837221643500,7.0896435546875,1.063122272491455,-0.3560241758823395,0.7601903080940247
1761139837231702300,7.099702392578125,0.9547324180603027,-0.4946901798248291,0.6955204606056213
1761139837241761500,7.109761474609375,0.8361788392066956,-0.6089192032814026,0.5771762132644653
1761139837251819300,7.1198193359375,0.7469509840011597,-0.6448652148246765,0.4732431471347809
1761139837261878500,7.12987841796875,0.6768869161605835,-0.639282763004303,0.4217000901699066
1761139837271937500,7.1399375,0.6311889290809631,-0.6067887544631958,0.4437689185142517
1761139837281995500,7.14999560546875,0.6186822652816772,-0.542408287525177,0.551545262336731
1761139837292054500,7.160054443359375,0.6331424117088318,-0.4689476490020752,0.7061127424240112
1761139837302113500,7.170113525390625,0.6392713189125061,-0.3929469585418701,0.8499151468276978
1761139837312171800,7.180171875,0.5908531546592712,-0.37898027896881104,0.8927161693572998
1761139837322230500,7.19023046875,0.48768487572669983,-0.3932243883609772,0.8179655075073242
1761139837332289800,7.200289794921875,0.3644140660762787,-0.34001389145851135,0.6569491624832153
1761139837342348500,7.2103486328125,0.23525215685367584,-0.26160961389541626,0.4347478449344635
1761139837352406500,7.220406494140625,0.151126891374588,-0.1471986025571823,0.24692842364311218
1761139837362465500,7.230465576171875,0.13293293118476868,0.06298507004976273,0.15733414888381958
1761139837372524500,7.240524658203125,0.18003146350383759,0.31801682710647583,0.15205442905426025
1761139837382582800,7.250582763671875,0.26969629526138306,0.5612266659736633,0.21348999440670013
1761139837392641500,7.2606416015625,0.3842976987361908,0.7412720918655396,0.3005119860172272
1761139837402700500,7.270700439453125,0.4799143373966217,0.8444278836250305,0.3915165662765503
1761139837412758500,7.280758544921875,0.5377925038337708,0.8929511904716492,0.45716428756713867
1761139837422817800,7.29081787109375,0.5757902264595032,0.90008944272995,0.47060108184814453
1761139837432876500,7.30087646484375,0.5885276198387146,0.871186375617981,0.4095987379550934
1761139837442934500,7.3109345703125,0.5935477018356323,0.7965230345726013,0.27882179617881775
1761139837452993500,7.32099365234375,0.5743971467018127,0.67392897605896,0.06619955599308014
1761139837463052500,7.331052490234375,0.5334244966506958,0.5120572447776794,-0.19997538626194
1761139837473111600,7.341111572265625,0.4772435426712036,0.2985769510269165,-0.4970017373561859
1761139837483169500,7.35116943359375,0.41209810972213745,0.03742705285549164,-0.8106304407119751
1761139837493228800,7.361228759765625,0.3520328998565674,-0.27382615208625793,-1.1019678115844727
1761139837503287600,7.37128759765625,0.31729835271835327,-0.5421858429908752,-1.2951678037643433
1761139837513345500,7.381345458984375,0.26673105359077454,-0.7377034425735474,-1.3627097606658936
1761139837523404500,7.391404541015625,0.1948021799325943,-0.7652308940887451,-1.2814960479736328
1761139837533463600,7.401463623046875,0.15961302816867828,-0.5689024329185486,-1.050003170967102
1761139837543521500,7.411521484375,0.19384124875068665,-0.2457229346036911,-0.7320215106010437
1761139837553580500,7.42158056640625,0.2889326214790344,0.08925372362136841,-0.3974112570285797
1761139837563639600,7.4316396484375,0.39305931329727173,0.3402358591556549,-0.1265990287065506
1761139837573698600,7.441698486328125,0.44519442319869995,0.48699653148651123,0.06305212527513504
1761139837583756800,7.4517568359375,0.4707813858985901,0.6191907525062561,0.17641165852546692
1761139837593815600,7.461815673828125,0.494692862033844,0.735689640045166,0.22646737098693848
1761139837603874600,7.47187451171875,0.49747204780578613,0.7922179102897644,0.19833077490329742
1761139837613932500,7.4819326171875,0.470998615026474,0.7438058853149414,0.11120732128620148
1761139837623991600,7.491991455078125,0.4479931890964508,0.6547960042953491,0.03218211606144905
1761139837634050600,7.502050537109375,0.4442458748817444,0.5280793309211731,-0.0009553291602060199
1761139837644108500,7.512108642578125,0.45199713110923767,0.4112217128276825,0.0072190286591649055
1761139837654167600,7.52216748046875,0.4689420461654663,0.3831879496574402,0.040753550827503204
1761139837664226600,7.5322265625,0.4896688461303711,0.4017317295074463,0.060509394854307175
1761139837674284800,7.542284912109375,0.5083000659942627,0.42449721693992615,0.04909375309944153
1761139837684343600,7.552343505859375,0.5133731365203857,0.45785024762153625,0.00956001877784729
1761139837694402800,7.56240283203125,0.5140175819396973,0.4946697950363159,-0.03765729442238808
1761139837704461600,7.572461669921875,0.5118101835250854,0.5224074721336365,-0.08049837499856949
1761139837714519600,7.58251953125,0.4916423559188843,0.5123087763786316,-0.11019875109195709
1761139837724578600,7.59257861328125,0.45122939348220825,0.48820313811302185,-0.12533573806285858
1761139837734637600,7.602637451171875,0.40223175287246704,0.46336090564727783,-0.11513102054595947
1761139837744695600,7.612695556640625,0.3652092516422272,0.4250277876853943,-0.08065036684274673
1761139837754754600,7.622754638671875,0.3259470760822296,0.370583713054657,-0.03468314930796623
1761139837764813600,7.6328134765625,0.2784135341644287,0.27777764201164246,-0.01551739126443863
1761139837774871600,7.64287158203125,0.24560125172138214,0.1901756376028061,0.025113126263022423
1761139837784930800,7.652930908203125,0.2539910078048706,0.14339351654052734,0.09033845365047455
1761139837794989600,7.662989501953125,0.2893388569355011,0.14592325687408447,0.17562006413936615
1761139837805047600,7.673047607421875,0.34406113624572754,0.17278747260570526,0.2511618435382843
1761139837815106600,7.6831064453125,0.38808879256248474,0.19776791334152222,0.2990598678588867
1761139837825165600,7.69316552734375,0.4206939935684204,0.24637360870838165,0.3305332362651825
1761139837835224600,7.703224609375,0.44066157937049866,0.3144378960132599,0.35096606612205505
1761139837845282600,7.713282470703125,0.4383186399936676,0.36987459659576416,0.34136250615119934
1761139837855341600,7.723341552734375,0.4197918474674225,0.38114961981773376,0.29877108335494995
1761139837865400600,7.733400634765625,0.3922485113143921,0.36072298884391785,0.24093686044216156
1761139837875458600,7.74345849609375,0.35152265429496765,0.28700482845306396,0.15747632086277008
1761139837885517600,7.753517578125,0.27683910727500916,0.18001174926757812,0.04896893352270126
1761139837895576600,7.76357666015625,0.19834004342556,0.06548677384853363,-0.06942428648471832
1761139837905634600,7.773634521484375,0.1486075222492218,0.0352436825633049,-0.16608765721321106
1761139837915693600,7.783693603515625,0.1588071584701538,0.09308221191167831,-0.238212451338768
1761139837925752600,7.793752685546875,0.2090754359960556,0.14629769325256348,-0.30334973335266113
1761139837935811600,7.8038115234375,0.29068723320961,0.18327222764492035,-0.34571343660354614
1761139837945869600,7.81386962890625,0.3819447457790375,0.19133524596691132,-0.3684791028499603
1761139837955928600,7.823928466796875,0.46302175521850586,0.18183095753192902,-0.37733277678489685
1761139837965987600,7.833987548828125,0.5380433797836304,0.14018253982067108,-0.3418065011501312
1761139837976045600,7.844045654296875,0.6059468388557434,0.06394635140895844,-0.25674885511398315
1761139837986104600,7.8541044921875,0.6280488967895508,-0.056310735642910004,-0.14089037477970123
1761139837996163600,7.86416357421875,0.5856587886810303,-0.18533636629581451,-0.02417547069489956
1761139838006221600,7.8742216796875,0.48527947068214417,-0.2554149329662323,0.08792133629322052
1761139838016280600,7.884280517578125,0.350951224565506,-0.25542476773262024,0.17105190455913544
1761139838026339600,7.894339599609375,0.2043289691209793,-0.20765596628189087,0.21384595334529877
1761139838036397600,7.9043974609375,0.06494124978780746,-0.14916495978832245,0.2202433943748474
1761139838046456600,7.91445654296875,-0.017059583216905594,-0.04080177843570709,0.21947765350341797
1761139838056515600,7.924515625,-0.03521355241537094,0.16693544387817383,0.22745755314826965
1761139838066574600,7.93457470703125,-0.018113361671566963,0.40586715936660767,0.2087920904159546
1761139838076632600,7.944632568359375,-0.005830330774188042,0.6050875782966614,0.13660018146038055
1761139838086691600,7.954691650390625,-0.02778165228664875,0.7265246510505676,0.008669580332934856
1761139838096750600,7.96475048828125,-0.06484992057085037,0.7381424307823181,-0.1621841937303543
1761139838106808600,7.97480859375,-0.08720473200082779,0.6513650417327881,-0.3368893265724182
1761139838116867600,7.98486767578125,-0.07418746501207352,0.5080670118331909,-0.4693751931190491
1761139838126926600,7.994926513671875,-0.04252852126955986,0.3153568506240845,-0.5158858299255371
1761139838136984600,8.004984619140625,-0.037143610417842865,0.0776582583785057,-0.4966708719730377
1761139838147043600,8.015043701171875,-0.09490742534399033,-0.1881607174873352,-0.43047842383384705
1761139838157102600,8.0251025390625,-0.20159925520420074,-0.4607349932193756,-0.3191108703613281
1761139838167161600,8.03516162109375,-0.3233238458633423,-0.5839411616325378,-0.15587587654590607
1761139838177219600,8.045219482421874,-0.4201696813106537,-0.5115082263946533,0.060520075261592865
1761139838187278600,8.055278564453126,-0.46576473116874695,-0.38646093010902405,0.2738777697086334
1761139838197337600,8.065337646484375,-0.4430493116378784,-0.28197580575942993,0.46868079900741577
1761139838207395600,8.0753955078125,-0.3678535521030426,-0.20521654188632965,0.6341485977172852
1761139838217454600,8.08545458984375,-0.27145591378211975,-0.16456791758537292,0.7369593977928162
1761139838227513600,8.095513671875,-0.1817244589328766,-0.1667087972164154,0.7618816494941711
1761139838237571600,8.105571533203126,-0.11302635818719864,-0.19206368923187256,0.6888532042503357
1761139838247630600,8.115630615234375,-0.05794062092900276,-0.1788153052330017,0.5443041920661926
1761139838257689300,8.125689453125,-0.006319769658148289,-0.10401350259780884,0.3590973913669586
1761139838267748400,8.135748291015625,0.0625128224492073,0.006027246359735727,0.17778216302394867
1761139838277806300,8.145806396484375,0.16038772463798523,0.10670165717601776,0.03683623671531677
1761139838287865300,8.155865234375,0.2823726236820221,0.20648916065692902,-0.04202462360262871
1761139838297924400,8.16592431640625,0.40531453490257263,0.26711973547935486,-0.05400858074426651
1761139838307982000,8.175982177734374,0.4917060136795044,0.27859726548194885,0.0039267572574317455
1761139838318041300,8.186041259765625,0.534178614616394,0.2696104049682617,0.11087051779031754
1761139838328100000,8.19610009765625,0.5429102778434753,0.20660249888896942,0.24159690737724304
1761139838338158300,8.206158447265626,0.5040073990821838,0.11623318493366241,0.37115249037742615
1761139838348217300,8.21621728515625,0.4187212288379669,0.028765887022018433,0.49551963806152344
1761139838358276400,8.2262763671875,0.30908316373825073,-0.0866195559501648,0.5914286375045776
1761139838368334300,8.236334228515625,0.19849608838558197,-0.1770612746477127,0.6450237035751343
1761139838378393300,8.246393310546875,0.10652435570955276,-0.2481362372636795,0.647207498550415
1761139838388452400,8.256452392578124,0.04171055927872658,-0.2966630160808563,0.5941334366798401
1761139838398511400,8.266511474609375,-0.01514766551554203,-0.32008445262908936,0.49490800499916077
1761139838408569300,8.2765693359375,-0.05777483433485031,-0.32125988602638245,0.36099773645401
1761139838418628000,8.286628173828126,-0.06349664181470871,-0.2472522258758545,0.22407372295856476
1761139838428687400,8.296687255859375,-0.049922823905944824,-0.17803873121738434,0.07172820717096329
1761139838438745300,8.306745361328124,-0.020493028685450554,-0.1216960996389389,-0.0670243501663208
1761139838448804400,8.316804443359375,0.021360743790864944,-0.05447014793753624,-0.15563489496707916
1761139838458863400,8.32686328125,0.07741362601518631,-0.015048440545797348,-0.18705593049526215
1761139838468921000,8.336921142578126,0.13516931235790253,0.010754851624369621,-0.17332397401332855
1761139838478980400,8.34698046875,0.1841946393251419,-0.017497025430202484,-0.1412789523601532
1761139838489039000,8.3570390625,0.23128244280815125,-0.10732601583003998,-0.10748878866434097
1761139838499097300,8.367097412109375,0.29360443353652954,-0.24127982556819916,-0.09618926793336868
1761139838509156400,8.37715625,0.3485150933265686,-0.3275133967399597,-0.1218375414609909
1761139838519215400,8.38721533203125,0.3794676661491394,-0.36085644364356995,-0.17708641290664673
1761139838529274000,8.397274169921875,0.3897317945957184,-0.34299319982528687,-0.25623199343681335
1761139838539332400,8.407332275390624,0.38379108905792236,-0.28236982226371765,-0.3358067274093628
1761139838549391400,8.417391357421875,0.37233638763427734,-0.16069382429122925,-0.37463176250457764
1761139838559450400,8.427450439453125,0.36911794543266296,-0.02121742255985737,-0.3707435429096222
1761139838569508400,8.43750830078125,0.381573349237442,0.08807703107595444,-0.3206016421318054
1761139838579567000,8.447567138671875,0.4048730731010437,0.14845436811447144,-0.2379877120256424
1761139838589626400,8.45762646484375,0.4243498742580414,0.14780782163143158,-0.12294516712427139
1761139838599684400,8.467684326171875,0.4375610053539276,0.0986674353480339,0.009426184929907322
1761139838609743400,8.477743408203125,0.4427112936973572,0.03794299066066742,0.14934900403022766
1761139838619802000,8.487802001953124,0.4426676034927368,0.0062135555781424046,0.2720048725605011
1761139838629860400,8.4978603515625,0.43927061557769775,-0.00789301935583353,0.36731407046318054
1761139838639919400,8.50791943359375,0.41936880350112915,-0.046348266303539276,0.40096017718315125
1761139838649978400,8.517978271484376,0.3866483271121979,-0.07638610899448395,0.39186662435531616
1761139838660037400,8.528037353515625,0.35407334566116333,-0.0837167277932167,0.3404436409473419
1761139838670095000,8.53809521484375,0.3303673267364502,-0.0867680087685585,0.26334699988365173
1761139838680154400,8.548154296875,0.3149292469024658,-0.08244996517896652,0.17235878109931946
1761139838690213000,8.558213134765625,0.30308133363723755,-0.019550057128071785,0.10270947962999344
1761139838700271400,8.568271240234376,0.29188409447669983,0.032977066934108734,0.07022157311439514
1761139838710330400,8.578330322265625,0.27182015776634216,0.11368740350008011,0.07325652986764908
1761139838720389400,8.588389404296874,0.2521713376045227,0.18104487657546997,0.11485244333744049
1761139838730447400,8.598447265625,0.23512227833271027,0.25341740250587463,0.19559237360954285
1761139838740506400,8.60850634765625,0.20449432730674744,0.3258061110973358,0.2872146964073181
1761139838750565400,8.6185654296875,0.18049509823322296,0.3682129383087158,0.36719709634780884
1761139838760624400,8.628624267578125,0.16114111244678497,0.38523077964782715,0.42284783720970154
1761139838770682400,8.638682373046874,0.15211769938468933,0.3614652752876282,0.44248926639556885
1761139838780741000,8.6487412109375,0.14846596121788025,0.3316937983036041,0.4214569628238678
1761139838790800400,8.65880029296875,0.14660152792930603,0.3128681182861328,0.34889158606529236
1761139838800858400,8.6688583984375,0.13207106292247772,0.2803349494934082,0.22842775285243988
1761139838810917400,8.67891748046875,0.11393195390701294,0.24567997455596924,0.08157481253147125
1761139838820976400,8.688976318359375,0.1050598993897438,0.21414920687675476,-0.0612742155790329
1761139838831034000,8.6990341796875,0.10986214131116867,0.2160196304321289,-0.15990428626537323
1761139838841093400,8.70909326171875,0.1228242814540863,0.22367115318775177,-0.20419318974018097
1761139838851152100,8.719152099609374,0.12330613285303116,0.22827379405498505,-0.2215435802936554
1761139838861210400,8.72921044921875,0.10873278230428696,0.21251532435417175,-0.20876413583755493
1761139838871269000,8.73926904296875,0.08048790693283081,0.18878352642059326,-0.16999399662017822
1761139838881328400,8.749328369140626,0.0473368801176548,0.1520705223083496,-0.11415388435125351
1761139838891387100,8.75938720703125,0.009641936048865318,0.1012069508433342,-0.03483003005385399
1761139838901445400,8.7694453125,-0.02260255254805088,0.05031127855181694,0.05467881262302399
1761139838911504400,8.77950439453125,-0.04445244371891022,0.005425943527370691,0.11622268706560135
1761139838921563400,8.7895634765625,-0.0482112281024456,-0.032048195600509644,0.1401386857032776
1761139838931621400,8.799621337890626,-0.04265550896525383,-0.059395551681518555,0.12341015040874481
1761139838941680000,8.80968017578125,-0.03574460372328758,-0.06987908482551575,0.08422812819480896
1761139838951739400,8.819739501953125,-0.015020052902400494,-0.006165882106870413,0.053238458931446075
1761139838961797000,8.829797119140625,0.020280146971344948,0.1472548395395279,0.035134557634592056
1761139838971856400,8.8398564453125,0.057474538683891296,0.2989603579044342,0.007585193030536175
1761139838981915100,8.8499150390625,0.09512525051832199,0.38694000244140625,-0.0103440061211586
1761139838991973400,8.859973388671875,0.12400653213262558,0.4587334990501404,-0.006130948197096586
1761139839002032400,8.870032470703125,0.13743339478969574,0.49271517992019653,0.011250704526901245
1761139839012091400,8.88009130859375,0.13757270574569702,0.5114263892173767,0.0586036778986454
1761139839022150400,8.890150390625,0.14221219718456268,0.5385474562644958,0.12604424357414246
1761139839032208100,8.9002080078125,0.14151623845100403,0.5359106063842773,0.20230355858802795
1761139839042267400,8.910267333984375,0.1400246024131775,0.5534754991531372,0.2666226327419281
1761139839052326100,8.920326171875,0.1340782642364502,0.567119300365448,0.2777518928050995
1761139839062384400,8.93038427734375,0.13676033914089203,0.640263020992279,0.22988049685955048
1761139839072443100,8.940443115234375,0.1195325180888176,0.6908310651779175,0.12409774959087372
1761139839082502400,8.95050244140625,0.06889570504426956,0.7371969223022461,-0.0334271602332592
1761139839092560400,8.960560302734375,0.0016828288789838552,0.862522304058075,-0.24928738176822662
1761139839102619400,8.970619384765625,-0.027234306558966637,1.0906473398208618,-0.4908267855644226
1761139839112678400,8.980678466796874,0.001969102770090103,1.326983094215393,-0.7229421138763428
1761139839122737400,8.9907373046875,0.07329174876213074,1.4469717741012573,-0.9086917638778687
1761139839132795400,9.00079541015625,0.13849161565303802,1.417911410331726,-0.9898514747619629
1761139839142854100,9.010854248046876,0.16796082258224487,1.2916786670684814,-0.9543890953063965
1761139839152913400,9.020913330078125,0.15003277361392975,1.0798667669296265,-0.8429803848266602
1761139839162971100,9.03097119140625,0.11336449533700943,0.810093343257904,-0.6825180053710938
1761139839173030400,9.041030517578125,0.0900210365653038,0.5245101451873779,-0.5011587142944336
1761139839183089200,9.051089111328125,0.06492579728364944,0.2190689891576767,-0.3300647437572479
1761139839193147100,9.061147216796876,0.038814932107925415,-0.0684184581041336,-0.16196103394031525
1761139839203206400,9.071206298828125,0.004729933571070433,-0.3229181170463562,-0.01056591048836708
1761139839213265400,9.081265380859374,-0.01904946379363537,-0.4877341687679291,0.09664984792470932
1761139839223323400,9.091323486328125,-0.011644810438156128,-0.5285119414329529,0.1400098204612732
1761139839233382100,9.101382080078125,0.031149493530392647,-0.46905234456062317,0.14287041127681732
1761139839243441400,9.11144140625,0.10239783674478531,-0.3485669493675232,0.10007021576166153
1761139839253500200,9.121500244140625,0.18056507408618927,-0.19428959488868713,0.01550881378352642
1761139839263559400,9.131559326171875,0.26643896102905273,-0.04421435296535492,-0.10296457260847092
1761139839273618400,9.141618408203126,0.37333419919013977,0.0643279179930687,-0.23161648213863373
1761139839283677400,9.151677490234375,0.48794546723365784,0.14365948736667633,-0.34390920400619507
1761139839293735400,9.1617353515625,0.5797958970069885,0.19663751125335693,-0.4274522364139557
1761139839303794400,9.17179443359375,0.6464977264404297,0.22356954216957092,-0.4636414051055908
1761139839313853400,9.181853515625,0.668349027633667,0.23144321143627167,-0.44099095463752747
1761139839323911400,9.191911376953126,0.6414452195167542,0.23112176358699799,-0.3333995044231415
1761139839333970400,9.201970458984375,0.5694059133529663,0.20377643406391144,-0.15750116109848022
1761139839344029400,9.212029541015625,0.46705159544944763,0.10504612326622009,0.04527510702610016
1761139839354087400,9.22208740234375,0.34904947876930237,-0.08364774286746979,0.24502910673618317
1761139839364146400,9.232146484375,0.24802088737487793,-0.3051154315471649,0.44954362511634827
1761139839374205400,9.242205322265624,0.17557711899280548,-0.5118305087089539,0.6107458472251892
1761139839384264400,9.252264404296875,0.13804998993873596,-0.6744332313537598,0.7101821899414062
1761139839394322400,9.262322509765625,0.14539915323257446,-0.7425237894058228,0.7434574961662292
1761139839404381400,9.27238134765625,0.17988522350788116,-0.7192623615264893,0.7169622182846069
1761139839414440400,9.2824404296875,0.22525760531425476,-0.6034508347511292,0.6409032940864563
1761139839424498400,9.29249853515625,0.28560590744018555,-0.43539926409721375,0.5336647629737854
1761139839434557400,9.302557373046875,0.3323251008987427,-0.27033454179763794,0.41425541043281555
1761139839444616200,9.3126162109375,0.3629104495048523,-0.16977623105049133,0.2939593493938446
1761139839454674400,9.32267431640625,0.37145504355430603,-0.11404722929000854,0.19595232605934143
1761139839464733400,9.3327333984375,0.3542608618736267,-0.1131896898150444,0.1269034892320633
1761139839474792400,9.34279248046875,0.3308708071708679,-0.15887120366096497,0.07693563401699066
1761139839484850400,9.352850341796875,0.31972333788871765,-0.20042316615581512,0.04721555858850479
1761139839494909400,9.362909423828125,0.3017241954803467,-0.22007569670677185,0.0143700260668993
1761139839504968400,9.372968505859374,0.26627832651138306,-0.24074316024780273,-0.03209361061453819
1761139839515027500,9.38302734375,0.21833842992782593,-0.2698485255241394,-0.07846583425998688
1761139839525085400,9.39308544921875,0.15025818347930908,-0.28447166085243225,-0.09744086116552353
1761139839535144400,9.40314453125,0.09429412335157394,-0.26635780930519104,-0.08878927677869797
1761139839545203500,9.413203369140625,0.06147652119398117,-0.23026001453399658,-0.04985332116484642
1761139839555261400,9.423261474609374,0.04128621518611908,-0.19477488100528717,0.0031858147121965885
1761139839565320400,9.433320556640625,0.04478747397661209,-0.16181692481040955,0.054476168006658554
1761139839575379500,9.44337939453125,0.05275353416800499,-0.14880593121051788,0.06558004021644592
1761139839585437400,9.4534375,0.06954716891050339,-0.16102291643619537,0.026443293318152428
1761139839595496400,9.463496337890625,0.08654773235321045,-0.17999863624572754,-0.03053814172744751
1761139839605555500,9.473555419921874,0.09443201869726181,-0.2130948007106781,-0.09348302334547043
1761139839615613400,9.483613525390625,0.10235457867383957,-0.2590283453464508,-0.14419877529144287
1761139839625672400,9.49367236328125,0.10479270666837692,-0.3112334907054901,-0.18735742568969727
1761139839635731500,9.5037314453125,0.08703306317329407,-0.28869011998176575,-0.2396446317434311
1761139839645790500,9.51379052734375,0.05562986433506012,-0.15267127752304077,-0.3151617646217346
1761139839655848400,9.523848388671874,0.04862813279032707,0.05398750305175781,-0.4095011353492737
1761139839665907500,9.533907470703125,0.08468174189329147,0.24364931881427765,-0.49631938338279724
1761139839675966500,9.543966552734375,0.1316937655210495,0.3532637655735016,-0.5243411064147949
1761139839686024400,9.5540244140625,0.16975140571594238,0.3366571068763733,-0.4743497967720032
1761139839696083200,9.564083251953125,0.20568758249282837,0.20615524053573608,-0.34533730149269104
1761139839706142500,9.574142578125,0.2127055525779724,0.01417834684252739,-0.17606891691684723
1761139839716200400,9.584200439453125,0.17327040433883667,-0.17732766270637512,-0.0047740875743329525
1761139839726259500,9.594259521484375,0.08664257079362869,-0.3584846556186676,0.10839827358722687
1761139839736318500,9.604318359375,-0.032540224492549896,-0.5215325355529785,0.14607712626457214
1761139839746377500,9.61437744140625,-0.14912648499011993,-0.648751974105835,0.11694082617759705
1761139839756435500,9.624435546875,-0.22769351303577423,-0.6645334362983704,0.05155346170067787
1761139839766494500,9.634494384765626,-0.26553675532341003,-0.5767132639884949,-0.0010056232567876577
1761139839776553500,9.644553466796875,-0.25554656982421875,-0.4046706259250641,-0.023334497585892677
1761139839786611200,9.654611083984374,-0.18968847393989563,-0.24470092356204987,-0.006101713515818119
1761139839796670500,9.66467041015625,-0.0853508859872818,-0.18042829632759094,0.05220135301351547
1761139839806729200,9.674729248046875,0.01814327761530876,-0.17759017646312714,0.15739037096500397
1761139839816787500,9.684787353515626,0.09845234453678131,-0.22114956378936768,0.2902444303035736
1761139839826846500,9.694846435546875,0.15254834294319153,-0.27006012201309204,0.4242733418941498
1761139839836905500,9.704905517578124,0.1716276854276657,-0.27868691086769104,0.5269235372543335
1761139839846963500,9.71496337890625,0.16475486755371094,-0.2685679793357849,0.57680344581604
1761139839857022500,9.7250224609375,0.1349484622478485,-0.27219823002815247,0.5578690767288208
1761139839867081500,9.73508154296875,0.10421986132860184,-0.29770997166633606,0.49635669589042664
1761139839877140500,9.745140380859375,0.07374484091997147,-0.34660211205482483,0.39546552300453186
1761139839887198500,9.755198486328124,0.04120660200715065,-0.3802120089530945,0.27419769763946533
1761139839897257200,9.76525732421875,0.015764791518449783,-0.397263765335083,0.1557854562997818
1761139839907316500,9.77531640625,-0.006978071294724941,-0.3903432786464691,0.03359721601009369
1761139839917374500,9.78537451171875,-0.02532052807509899,-0.36043408513069153,-0.08816222101449966
1761139839927433500,9.79543359375,-0.023545797914266586,-0.30626246333122253,-0.2053370475769043
1761139839937492500,9.805492431640625,0.0027841776609420776,-0.2181282490491867,-0.29641515016555786
1761139839947550500,9.815550537109376,0.039369888603687286,-0.07314042747020721,-0.33348581194877625
1761139839957609500,9.825609375,0.06415508687496185,0.10681009292602539,-0.32318857312202454
1761139839967668500,9.83566845703125,0.0804552361369133,0.2633056938648224,-0.2747885286808014
1761139839977726500,9.8457265625,0.09103770554065704,0.3552664518356323,-0.20843085646629333
1761139839987785200,9.85578515625,0.10606219619512558,0.3371047377586365,-0.1237758919596672
1761139839997844500,9.865844482421876,0.11475332081317902,0.23624351620674133,-0.018887951970100403
1761139840007903200,9.8759033203125,0.12170390784740448,0.11395356804132462,0.09000177681446075
1761139840017961500,9.88596142578125,0.1253787875175476,0.013453206047415733,0.18692396581172943
1761139840028020500,9.8960205078125,0.14222115278244019,-0.019673055037856102,0.26340118050575256
1761139840038079500,9.90607958984375,0.15507934987545013,0.01247050054371357,0.31496766209602356
1761139840048137500,9.916137451171876,0.1541813313961029,0.0577239990234375,0.35091739892959595
1761139840058196500,9.926196533203125,0.13799427449703217,0.14767040312290192,0.3708861172199249
1761139840068255500,9.93625537109375,0.12628088891506195,0.2632156312465668,0.38013821840286255
1761139840078313500,9.9463134765625,0.10704656690359116,0.36456650495529175,0.37194839119911194
1761139840088372500,9.95637255859375,0.09021352231502533,0.4120732843875885,0.34757620096206665
1761139840098431200,9.96643115234375,0.07874520123004913,0.3728083670139313,0.31829947233200073
1761139840108489500,9.976489501953125,0.05850224941968918,0.23480601608753204,0.27536267042160034
1761139840118548500,9.986548583984375,0.02800709567964077,0.03129151463508606,0.22257886826992035
1761139840128607500,9.996607421875,-0.012050309218466282,-0.189252570271492,0.1456766277551651
1761139840138666500,10.00666650390625,-0.04802989959716797,-0.39429301023483276,0.0394337996840477
1761139840148724200,10.01672412109375,-0.052808407694101334,-0.5458085536956787,-0.05533691495656967
1761139840158783500,10.026783447265625,-0.03215932473540306,-0.5950048565864563,-0.09865748882293701
1761139840168842200,10.03684228515625,-0.01884991116821766,-0.510971188545227,-0.07530742883682251
1761139840178900500,10.046900390625,-0.008562852628529072,-0.3317126929759979,-0.014790002256631851
1761139840188959500,10.05695947265625,0.015593083575367928,-0.08771868795156479,0.06918425858020782
1761139840199018500,10.0670185546875,0.038340941071510315,0.1534249186515808,0.14315514266490936
1761139840209076500,10.077076416015625,0.06355495005846024,0.3207947611808777,0.20989130437374115
1761139840219135500,10.087135498046875,0.08948685973882675,0.36919528245925903,0.26921504735946655
1761139840229194500,10.097194580078124,0.10328096896409988,0.30195125937461853,0.33115991950035095
1761139840239252200,10.107252197265625,0.09859883785247803,0.15117032825946808,0.3834250569343567
1761139840249311500,10.1173115234375,0.0908152163028717,-0.028910495340824127,0.4249788820743561
1761139840259370200,10.127370361328126,0.08196694403886795,-0.19675952196121216,0.45280689001083374
1761139840269428200,10.13742822265625,0.06908630579710007,-0.32329270243644714,0.4611463248729706
1761139840279486200,10.147486328125,0.05485939607024193,-0.39172258973121643,0.46287238597869873
1761139840289545000,10.157544921875,0.03785324841737747,-0.4216408133506775,0.4441106915473938
1761139840299604200,10.167604248046874,0.03242093324661255,-0.41219964623451233,0.41259750723838806
1761139840309662200,10.177662109375,0.024642108008265495,-0.3628893494606018,0.3580833971500397
1761139840319721200,10.18772119140625,0.02483844757080078,-0.24836379289627075,0.2902260720729828
1761139840329780200,10.1977802734375,0.04554612562060356,-0.09969575703144073,0.2007124423980713
1761139840339838200,10.207838134765625,0.07711330056190491,0.007999774068593979,0.08821676671504974
1761139840349897200,10.217897216796874,0.12432875484228134,0.014369256794452667,-0.021235689520835876
1761139840359956200,10.227956298828126,0.19064845144748688,-0.021345024928450584,-0.09354901313781738
1761139840370014200,10.23801416015625,0.25797101855278015,-0.05374717712402344,-0.12026398628950119
1761139840380073000,10.248072998046876,0.3119695782661438,-0.07833845913410187,-0.1184699758887291
1761139840390132200,10.25813232421875,0.36148494482040405,-0.0746406614780426,-0.09708346426486969
1761139840400190200,10.268190185546874,0.397519052028656,-0.03419964760541916,-0.08210550993680954
1761139840410249200,10.278249267578126,0.4067138731479645,0.05809459462761879,-0.09428095072507858
1761139840420308200,10.28830810546875,0.40337249636650085,0.18194250762462616,-0.1302008330821991
1761139840430367200,10.2983671875,0.40499675273895264,0.29118242859840393,-0.19193877279758453
1761139840440425200,10.30842529296875,0.4065530598163605,0.32955867052078247,-0.2521069645881653
1761139840450484200,10.318484130859375,0.3990804851055145,0.3020772635936737,-0.27108943462371826
1761139840460543200,10.328543212890626,0.37095534801483154,0.23581133782863617,-0.2541787624359131
1761139840470601000,10.33860107421875,0.3358122706413269,0.14804047346115112,-0.21353837847709656
1761139840480660200,10.34866015625,0.2914413809776306,0.05237659811973572,-0.16816438734531403
1761139840490719000,10.358718994140625,0.24226343631744385,-0.019551385194063187,-0.12214311212301254
1761139840500777200,10.368777099609375,0.20004428923130035,-0.04055844247341156,-0.08659498393535614
1761139840510836200,10.378836181640626,0.16812764108181,0.00683304388076067,-0.058124467730522156
1761139840520895200,10.388895263671875,0.14784613251686096,0.08648141473531723,-0.039178360253572464
1761139840530953200,10.398953125,0.12849535048007965,0.14450185000896454,-0.028843432664871216
1761139840541012200,10.40901220703125,0.1270385980606079,0.15873964130878448,-0.015663713216781616
1761139840551071200,10.4190712890625,0.1324767768383026,0.13924583792686462,-0.008576774969696999
1761139840561130200,10.429130126953124,0.14056716859340668,0.08145325630903244,-0.006800537928938866
1761139840571188200,10.439188232421875,0.13062267005443573,0.013364484533667564,-0.01795066148042679
1761139840581247000,10.4492470703125,0.09586437046527863,-0.044266775250434875,-0.050497349351644516
1761139840591306200,10.45930615234375,0.0366244837641716,-0.09050644934177399,-0.08677492290735245
1761139840601364200,10.4693642578125,-0.020078442990779877,-0.11899500340223312,-0.11858495324850082
1761139840611423200,10.47942333984375,-0.06894931197166443,-0.121619813144207,-0.13492929935455322
1761139840621482200,10.489482177734375,-0.10368166863918304,-0.09455977380275726,-0.12452209740877151
1761139840631540000,10.4995400390625,-0.13138200342655182,-0.05083093419671059,-0.10910160094499588
1761139840641599200,10.50959912109375,-0.1583569049835205,0.01772533543407917,-0.09166650474071503
1761139840651658000,10.519657958984375,-0.17506583034992218,0.06504517793655396,-0.07916482537984848
1761139840661716200,10.52971630859375,-0.17086943984031677,0.09287555515766144,-0.05646855756640434
1761139840671775000,10.53977490234375,-0.15220201015472412,0.09509076923131943,-0.049675632268190384
1761139840681834200,10.549834228515625,-0.11862404644489288,0.0747954323887825,-0.050209756940603256
1761139840691893000,10.55989306640625,-0.0685129463672638,0.08519826829433441,-0.0581774041056633
1761139840701951200,10.569951171875,-0.0003341491101309657,0.14189627766609192,-0.06860163062810898
1761139840712010200,10.58001025390625,0.07959263771772385,0.25781941413879395,-0.08134166151285172
1761139840722069200,10.5900693359375,0.17193029820919037,0.43031424283981323,-0.10229683667421341
1761139840732127200,10.600127197265625,0.25586673617362976,0.622957706451416,-0.12176108360290527
1761139840742186000,10.61018603515625,0.3208375573158264,0.7463846206665039,-0.15474902093410492
1761139840752245200,10.620245361328125,0.371567040681839,0.7476445436477661,-0.2052486687898636
1761139840762303200,10.63030322265625,0.39401450753211975,0.6250393986701965,-0.26455801725387573
1761139840772362200,10.6403623046875,0.38769376277923584,0.44472846388816833,-0.29599103331565857
1761139840782421000,10.6504208984375,0.3695366382598877,0.2840743362903595,-0.2853061258792877
1761139840792479200,10.660479248046874,0.3379614055156708,0.19716741144657135,-0.24167077243328094
1761139840802538200,10.670538330078125,0.3032800853252411,0.22820720076560974,-0.20082491636276245
1761139840812597200,10.68059716796875,0.2712739408016205,0.30738431215286255,-0.19816255569458008
1761139840822656300,10.69065625,0.22567598521709442,0.3489152491092682,-0.2487061768770218
1761139840832714000,10.7007138671875,0.16203495860099792,0.32345035672187805,-0.3446894586086273
1761139840842773200,10.710773193359374,0.09958081692457199,0.2759093642234802,-0.4461573362350464
1761139840852832000,10.72083203125,0.07696924358606339,0.24715280532836914,-0.5075210332870483
1761139840862890200,10.73089013671875,0.09362564980983734,0.24847078323364258,-0.524200975894928
1761139840872949200,10.74094921875,0.1112792119383812,0.28201889991760254,-0.5170810222625732
1761139840883008300,10.75100830078125,0.12403187155723572,0.30849146842956543,-0.5053275227546692
1761139840893066200,10.761066162109374,0.13459104299545288,0.31970471143722534,-0.4972213804721832
1761139840903125200,10.771125244140626,0.15333355963230133,0.3091062605381012,-0.4821515381336212
1761139840913184300,10.781184326171875,0.17243029177188873,0.24876438081264496,-0.4529281556606293
1761139840923242000,10.791241943359376,0.18125802278518677,0.14406554400920868,-0.394225150346756
1761139840933301200,10.80130126953125,0.17198915779590607,0.03004363551735878,-0.3052164614200592
1761139840943360000,10.811360107421875,0.1604689359664917,-0.0670410692691803,-0.2144327610731125
1761139840953418200,10.821418212890626,0.16431879997253418,-0.08780492842197418,-0.11066640913486481
1761139840963477200,10.831477294921875,0.19553256034851074,-0.018998969346284866,0.000020122737623751163
1761139840973536300,10.841536376953124,0.2578316330909729,0.09914951026439667,0.1145419105887413
1761139840983595000,10.851594970703125,0.3445541560649872,0.2204389125108719,0.22856734693050385
1761139840993653000,10.861653076171875,0.43771660327911377,0.30314603447914124,0.3325677812099457
1761139841003712300,10.871712158203126,0.5094117522239685,0.32999736070632935,0.42082223296165466
1761139841013771000,10.88177099609375,0.5510507822036743,0.29672008752822876,0.4779960513114929
1761139841023829200,10.891829345703124,0.5833902955055237,0.23207226395606995,0.5047390460968018
1761139841033888000,10.901887939453125,0.5899363160133362,0.12914560735225677,0.5000358819961548
1761139841043947300,10.911947265625,0.5482627749443054,-0.034121349453926086,0.43963757157325745
1761139841054005200,10.922005126953126,0.4539215862751007,-0.25346967577934265,0.31939104199409485
1761139841064064300,10.932064208984375,0.3573412001132965,-0.34879693388938904,0.17485177516937256
1761139841074123300,10.942123291015625,0.31025785207748413,-0.2566598057746887,0.045841604471206665
1761139841084181000,10.952180908203125,0.31090855598449707,-0.04792284220457077,-0.06424705684185028
1761139841094240300,10.962240234375,0.3400304913520813,0.21106690168380737,-0.134952113032341
1761139841104299000,10.972299072265624,0.38006919622421265,0.47893601655960083,-0.16200391948223114
1761139841114358300,10.982358154296875,0.3842383623123169,0.6646153330802917,-0.1738235503435135
1761139841124416000,10.992416015625,0.3439050316810608,0.7056597471237183,-0.21198950707912445
1761139841134475300,11.002475341796876,0.27703651785850525,0.5648360848426819,-0.3078257441520691
1761139841144534000,11.012533935546875,0.16202422976493835,0.25787535309791565,-0.44641342759132385
1761139841154592300,11.02259228515625,0.010809146799147129,-0.19031228125095367,-0.6045711040496826
1761139841164651300,11.0326513671875,-0.12326698005199432,-0.6429859399795532,-0.7316170334815979
1761139841174710300,11.042710205078125,-0.2301071435213089,-0.8763954639434814,-0.8179476857185364
1761139841184768300,11.052768310546876,-0.32882925868034363,-0.9279668927192688,-0.8779241442680359
1761139841194827000,11.062826904296875,-0.3564526438713074,-0.831642746925354,-0.8858931064605713
1761139841204886300,11.07288623046875,-0.2903987467288971,-0.5774455666542053,-0.8182231783866882
1761139841214944000,11.082944091796875,-0.18598951399326324,-0.23857726156711578,-0.6884036660194397
1761139841225003300,11.093003173828125,-0.08339832723140717,0.07610304653644562,-0.5258572101593018
1761139841235062000,11.10306201171875,0.0017621067818254232,0.3094654679298401,-0.33439725637435913
1761139841245121300,11.113121337890625,0.04091378673911095,0.42344194650650024,-0.12819072604179382
1761139841255179300,11.12317919921875,0.03107420541346073,0.3950696885585785,0.03931465372443199
1761139841265238300,11.13323828125,0.008639819920063019,0.2448282539844513,0.14283709228038788
1761139841275297300,11.14329736328125,-0.04158606752753258,0.02723388373851776,0.1727779358625412
1761139841285355000,11.15335498046875,-0.1263376772403717,-0.19878411293029785,0.1247490718960762
1761139841295414300,11.163414306640625,-0.19101999700069427,-0.33382368087768555,0.035598695278167725
1761139841305473000,11.17347314453125,-0.20000869035720825,-0.3374859392642975,-0.07799851894378662
1761139841315531300,11.18353125,-0.17529216408729553,-0.2702656090259552,-0.18498942255973816
1761139841325590000,11.193590087890625,-0.14201031625270844,-0.14825765788555145,-0.26681846380233765
1761139841335649300,11.203649169921874,-0.13263891637325287,0.0025321152061223984,-0.32444342970848083
1761139841345707300,11.213707275390625,-0.137580007314682,0.15160423517227173,-0.3626419007778168
1761139841355766000,11.22376611328125,-0.13767428696155548,0.23697425425052643,-0.382763147354126
1761139841365825300,11.2338251953125,-0.1315683275461197,0.28102782368659973,-0.38672828674316406
1761139841375883000,11.243883056640625,-0.13815699517726898,0.26553434133529663,-0.3782908618450165
1761139841385942300,11.2539423828125,-0.16917596757411957,0.18897630274295807,-0.36373016238212585
1761139841396001000,11.2640009765625,-0.23722878098487854,0.030875874683260918,-0.3595231771469116
1761139841406060300,11.274060302734375,-0.3080163300037384,-0.058067694306373596,-0.3242233693599701
1761139841416118300,11.2841181640625,-0.26339560747146606,-0.03316793963313103,-0.2814338207244873
1761139841426177300,11.29417724609375,-0.21810491383075714,-0.010175764560699463,-0.1314259171485901
1761139841436236000,11.304236083984375,-0.2511076331138611,-0.3784336745738983,-0.0717492625117302
1761139841446294000,11.3142939453125,-0.2819957435131073,-0.7459352016448975,-0.07125328481197357
1761139841456353300,11.324353271484375,-0.23901629447937012,-0.8052291870117188,-0.1334354281425476
1761139841466412000,11.334412109375,-0.2064906805753708,-0.701568603515625,-0.23717686533927917
1761139841476470300,11.34447021484375,-0.20023198425769806,-0.44712862372398376,-0.3260475993156433
1761139841486529000,11.354529052734375,-0.19519922137260437,-0.11450330913066864,-0.3643638491630554
1761139841496588300,11.36458837890625,-0.18637536466121674,0.1461479812860489,-0.3836304843425751
1761139841506646300,11.374646240234375,-0.1641114056110382,0.2820907533168793,-0.4135521352291107
1761139841516705300,11.384705322265624,-0.15595600008964539,0.3215436041355133,-0.4654179811477661
1761139841526764000,11.394763916015625,-0.1877335160970688,0.20108306407928467,-0.503122866153717
1761139841536823300,11.4048232421875,-0.21875295042991638,0.0011470438912510872,-0.47932887077331543
1761139841546881300,11.41488134765625,-0.25303658843040466,-0.2173888385295868,-0.4111248552799225
1761139841556940000,11.42493994140625,-0.28735247254371643,-0.45673349499702454,-0.3262624144554138
