time,seconds_elapsed,z,y,x
1761140359862589200,0.068589111328125,0.34945582722723484,-0.10637450835555791,-0.22833558516055344
1761140359872649200,0.078649169921875,0.5278741197913884,-0.05354249735623598,-0.2327119736138731
1761140359882708000,0.0887080078125,0.7392863349407911,-0.030454759496450424,-0.23814601789396256
1761140359892768300,0.098768310546875,0.9405044883340596,0.001940320412814617,-0.1421291643584147
1761140359902827300,0.1088271484375,1.036646648749709,0.06899462577104568,-0.026151217083632945
1761140359912887000,0.118886962890625,0.7971545865416526,0.13135960426926613,0.1462957825185731
1761140359922947000,0.128947021484375,0.35166415092647074,0.2521221189394593,0.3044215208994224
1761140359933006000,0.139006103515625,0.1150911910355091,0.45750995923280713,0.30838308147415516
1761140359943066000,0.149066162109375,0.16708792025446892,0.4762243043139577,0.24950649308096615
1761140359953125000,0.159125,0.3027040129244327,0.29175211853832006,0.17519381409231571
1761140359963185200,0.16918505859375,0.24020225630402564,0.13114245438724756,0.139871704287827
1761140359973244200,0.179244140625,0.029471593677997586,0.11418547436743974,0.11948456715624779
1761140359983304200,0.18930419921875,-0.14483166478276252,0.1961193689495325,0.04048742014579475
1761140359993363200,0.19936328125,-0.232583013471961,0.19186580315828322,0.024148973883129653
1761140360003423200,0.20942333984375,-0.1797936725705862,0.15779343768656254,0.08709566125944257
1761140360013483000,0.21948291015625,-0.07209902152717113,0.13019699023067952,0.16768088117893784
1761140360023542300,0.229542236328125,-0.002788753935694694,0.07274199560582638,0.11563611156716942
1761140360033602300,0.239602294921875,-0.042700493085384365,0.023431144469976423,0.05536795921772718
1761140360043661000,0.2496611328125,-0.18770634539127348,0.01992518217563629,0.03666665628124028
1761140360053721000,0.25972119140625,-0.27655250357985495,0.025851941876113414,0.025847411831468343
1761140360063781400,0.269781494140625,-0.30784955911934375,0.028935002583265302,0.080257960726507
1761140360073840000,0.279840087890625,-0.2684849324584007,-0.021551614333689212,0.1272122753314674
1761140360083900200,0.289900146484375,-0.12961480642855167,-0.06585252835303544,0.1478343537300825
1761140360093959200,0.299959228515625,-0.015346037691831588,-0.1637318878248334,0.11090374928303062
1761140360104019200,0.310019287109375,-0.02897650363743305,-0.25034020395874973,0.01830956367254257
1761140360114078000,0.320077880859375,-0.05503215139210224,-0.32521132054775953,-0.08989248890373855
1761140360124138200,0.33013818359375,-0.03504208728671074,-0.28658494503349063,-0.21255338454116135
1761140360134197200,0.340197265625,-0.02321779398024082,-0.23876053306311368,-0.19914065299946815
1761140360144257000,0.350257080078125,-0.02806932566463947,-0.162184658382833,-0.11594795399531721
1761140360154317000,0.360317138671875,-0.07354337511658668,-0.06100011988580226,-0.04464369957502931
1761140360164376300,0.370376220703125,-0.22132804448604582,0.04887275197952985,0.008416969081014395
1761140360174436000,0.38043603515625,-0.4469909033060074,0.16451368585228918,0.02471406041998416
1761140360184495000,0.3904951171875,-0.5300339281737804,0.35640257762521504,0.0038085619701072574
1761140360194555100,0.40055517578125,-0.44480069978535175,0.4697974861368537,-0.012084843938797711
1761140360204614100,0.4106142578125,-0.2608388016194105,0.4649363098412752,-0.003080065032467246
1761140360214674200,0.420674072265625,-0.05275836124122142,0.4046835011914372,-0.07443436913955956
1761140360224734000,0.43073388671875,0.12174655727148055,0.3212330645665526,-0.19505119172874838
1761140360234793200,0.440793212890625,0.2623544668793678,0.2530161451697349,-0.2848915485864505
1761140360244853200,0.450853271484375,0.25057927341163155,0.1607441041857004,-0.2396552168805152
1761140360254912300,0.460912353515625,0.17677637057602405,0.15735007783323526,-0.13592808122858405
1761140360264972300,0.47097216796875,0.09091068950295447,0.21340251218378542,-0.06537577768675983
1761140360275031000,0.481031005859375,0.039106267985701555,0.2224012266755104,0.005975713408738374
1761140360285091000,0.491091064453125,0.030490999853610992,0.17407471040189265,0.07979841692335903
1761140360295151400,0.5011513671875,0.05980711070895195,0.1101440900221467,0.10007098776455968
1761140360305210000,0.511210205078125,0.08740998790562152,0.018095920921862123,0.04666698556356132
1761140360315270100,0.521270263671875,0.17446400198042392,-0.1073971294015646,0.026088855904527006
1761140360325329200,0.5313291015625,0.24819325505793094,-0.17742372856885194,0.021739939980022608
1761140360335389200,0.54138916015625,0.1727916848540306,-0.25730507453531026,0.09038337769322097
1761140360345448200,0.5514482421875,0.018551555734872816,-0.26615064429193735,0.15312270592916755
1761140360355508000,0.561508056640625,-0.1701560756534338,-0.24170798469185828,0.1874215005679056
1761140360365567200,0.571567138671875,-0.3407125488013029,-0.267984581720829,0.19059673307053743
1761140360375627000,0.581626953125,-0.4326613491803407,-0.292429287147522,0.1253390653381124
1761140360385687000,0.59168701171875,-0.4037894749611616,-0.3320955271035433,0.06528999909944833
1761140360395746300,0.601746337890625,-0.29229484711289405,-0.33843583604097366,0.0422383189337328
1761140360405806000,0.61180615234375,-0.2159177098751068,-0.38532764333635566,0.06070665336456149
1761140360415865000,0.621864990234375,-0.21920798359215257,-0.3475651911750436,0.07946355894580483
1761140360425925400,0.63192529296875,-0.32125673770308494,-0.25274638831764457,0.0879222117440775
1761140360435984100,0.641984130859375,-0.4616080422013998,-0.11235066015571356,0.13406773071680217
1761140360446044200,0.652044189453125,-0.5459159724384546,0.050856911534070966,0.1284004987353459
1761140360456104000,0.66210400390625,-0.4728104042172432,0.18522271188199518,0.07890855541154741
1761140360466163200,0.6721630859375,-0.2963362314581871,0.24510288782715797,0.0030547479281201957
1761140360476223200,0.68222314453125,-0.11870061370432376,0.26819559412300586,-0.06978621454015374
1761140360486282000,0.692281982421875,0.06783844147324562,0.26289661093205213,-0.13673066631574182
1761140360496342300,0.70234228515625,0.16064356642067432,0.2581444479689002,-0.13905706343669444
1761140360506401000,0.712401123046875,0.2178922248184681,0.2936345712840557,-0.10688289626911282
1761140360516461000,0.7224609375,0.29138240844309327,0.3447597783654928,-0.048072760708257556
1761140360526521000,0.73252099609375,0.31326807703673837,0.30792174757272,0.020303258240409194
1761140360536580000,0.742580078125,0.34752515142560003,0.29370442164987326,0.09748224991299212
1761140360546640100,0.75264013671875,0.34403730930984017,0.32047844680696724,0.14232337175626306
1761140360556699100,0.76269921875,0.27964696246385573,0.29262305615395307,0.1910837859351188
1761140360566759200,0.77275927734375,0.22483809843361377,0.29115882882028815,0.24284265127759425
1761140360576818200,0.782818115234375,0.29126258145570755,0.29644875192195175,0.2512763522977009
1761140360586878000,0.7928779296875,0.46461599184572694,0.25266017133891583,0.2355445666912943
1761140360596938200,0.802938232421875,0.5910007303118705,0.2119657573789358,0.2694908946305513
1761140360606997200,0.812997314453125,0.6914093160003423,0.16399959885030985,0.2501897991700098
1761140360617057000,0.82305712890625,0.6352940455466508,0.06528232724964618,0.18954890451803802
1761140360627116300,0.8331162109375,0.44238487081527705,-0.0067328153863549225,0.09456409744396806
1761140360637176000,0.843176025390625,0.22229484369158745,-0.03460749526172876,-0.04622340651452541
1761140360647235000,0.853235107421875,0.07555471493899822,-0.048260465300083155,-0.1373359021998942
1761140360657295000,0.863295166015625,-0.03127133657634258,-0.0949918213367462,-0.15457272207438943
1761140360667354000,0.87335400390625,-0.1622521706610918,-0.12076689858436583,-0.13549082232248036
1761140360677414100,0.8834140625,-0.28705402384996415,-0.08016893073618411,-0.0901067892415449
1761140360687474200,0.89347412109375,-0.32552316297590733,0.01037584806382656,-0.02789926632735878
1761140360697533200,0.903533203125,-0.2982382656872272,0.043805823978781695,-0.005576558023318648
1761140360707593200,0.91359326171875,-0.19326047238707542,0.023196166670322416,-0.04399915459379553
1761140360717652000,0.92365185546875,-0.09079378512501717,-0.05268149661272764,-0.12030074237734079
1761140360727712300,0.933712158203125,0.06519523348808288,-0.09752250885814427,-0.19213387950994074
1761140360737771000,0.94377099609375,0.2003589062154293,-0.12493337061405181,-0.23184147438965735
1761140360747831300,0.953831298828125,0.2833002242743969,-0.18813304637074468,-0.32732378265708684
1761140360757891300,0.963891357421875,0.26751053446829315,-0.26540917827486993,-0.36245833400022237
1761140360767950300,0.973950439453125,0.15741759011149406,-0.27757074071168897,-0.3045426265284419
1761140360778010400,0.98401025390625,0.005443652358651161,-0.1848001025557518,-0.19276048697568476
1761140360788069400,0.9940693359375,-0.07913900316655635,-0.08301789042651653,-0.07955887254644185
1761140360798129400,1.00412939453125,-0.06900923881828784,0.003397533483803272,-0.006414506684802472
1761140360808188400,1.0141884765625,-0.02780629081428051,0.08448153323829173,-0.0003981690047308802
1761140360818248200,1.024248291015625,0.027141689425706862,0.1337242875739932,-0.028687676758691667
1761140360828307500,1.034307373046875,0.11067863529026507,0.15945757150650022,-0.09716058021057397
1761140360838367500,1.044367431640625,0.13580372419655323,0.16011837350279093,-0.11235263291709124
1761140360848427300,1.05442724609375,0.15658990711569784,0.16955080323666333,-0.13129074028413742
1761140360858486500,1.064486572265625,0.1993652190029621,0.17502777334302663,-0.14643500832617282
1761140360868546300,1.07454638671875,0.18902385773062705,0.17730857775658368,-0.046886546598374844
1761140360878605300,1.084605224609375,0.14749299294650553,0.19308599260300396,-0.0032786198118701575
1761140360888665300,1.094665283203125,0.13489713074564932,0.17971300854980946,0.024511560117825865
1761140360898724400,1.104724365234375,0.021788053438067435,0.09916706119477749,0.1038988754896447
1761140360908784400,1.114784423828125,-0.1980067901313305,0.07889788788706063,0.16849307434465735
1761140360918844400,1.124844482421875,-0.3424111694127321,0.14575871649980543,0.15231654064543546
1761140360928903400,1.1349033203125,-0.3394137411624193,0.18434505226463077,0.114065647380054
1761140360938963500,1.14496337890625,-0.2220516825854778,0.15648673900216817,0.11467607089597731
1761140360949022200,1.155022216796875,-0.04768588028252124,0.1112310084760189,0.147529196771048
1761140360959082200,1.165082275390625,0.03934066126346588,0.06768383543342352,0.1277010817617178
1761140360969141200,1.175141357421875,0.09180091634094714,0.059576516823470586,0.05585314891878515
1761140360979201300,1.185201171875,0.12242051101028918,0.024189269360899924,0.029116606227867305
1761140360989260500,1.195260498046875,0.16252397333979607,-0.015667816992104053,0.06726140877027065
1761140360999320300,1.2053203125,0.188289113715291,-0.059981590493023394,0.08283329110722988
1761140361009380400,1.21538037109375,0.15612112056016922,-0.13727671935856342,0.03313515768684447
1761140361019439400,1.225439453125,0.08425356970131397,-0.14897329463213682,-0.02525971160400659
1761140361029499400,1.23549951171875,-0.009788403564691543,-0.11990589784085749,-0.06889237097296863
1761140361039558400,1.245558349609375,-0.12310147901177405,-0.11537176154255867,-0.0708411304205656
1761140361049618200,1.2556181640625,-0.19822481679618356,-0.10852817925810813,-0.044793337178789076
1761140361059677400,1.265677490234375,-0.3351923240751028,-0.0670721332758665,-0.05287738451100885
1761140361069737500,1.275737548828125,-0.45199265711605546,-0.010901917764544486,-0.06811013455409556
1761140361079796200,1.285796142578125,-0.41773850533664225,-0.015496844339370727,-0.11424443801306187
1761140361089856500,1.2958564453125,-0.2203442941457033,-0.03810293616205453,-0.11394739129524677
1761140361099916500,1.30591650390625,-0.037089082944393156,-0.05073854585140943,-0.10358706959411501
1761140361109975300,1.315975341796875,0.1122632741332054,-0.06719312930703163,-0.16027568295635283
1761140361120035300,1.326035400390625,0.23435469931960104,-0.07526391529887914,-0.23919169102199375
1761140361130094300,1.33609423828125,0.2238338898271322,-0.07605769602507352,-0.27278241045661267
1761140361140154400,1.346154296875,0.09230418968796729,-0.017828794418275354,-0.26518059368338437
1761140361150213000,1.356213134765625,-0.03950783452391624,0.0714817664116621,-0.2472567413927987
1761140361160273400,1.3662734375,-0.10641279453933239,0.11042115339785813,-0.2439932460848242
1761140361170333400,1.37633349609375,-0.09939619377553463,0.05892126778513193,-0.2159905924482271
1761140361180392200,1.38639208984375,-0.054639352682232856,0.07008622040003537,-0.18774861363042145
1761140361190452200,1.3964521484375,0.0015659341424703597,0.054314650772511956,-0.1312938455566764
1761140361200511500,1.406511474609375,0.09368775300085544,0.01603431221693754,-0.04008315019384026
1761140361210571300,1.4165712890625,0.16582184584140777,0.057474868369102476,0.06953454133402556
1761140361220630500,1.426630615234375,0.21723171508312225,0.0022916180685162543,0.03389006770737469
1761140361230690300,1.436690185546875,0.33190321940183637,-0.04585691128969192,-0.0777398404257372
1761140361240749300,1.446749267578125,0.469586181473732,-0.07257862173765897,-0.11872205835115164
1761140361250809300,1.456809326171875,0.5928372980892658,-0.08097878581434488,-0.10613927482757717
1761140361260869400,1.466869384765625,0.6385089159399271,-0.06994915001690387,-0.0829197638142854
1761140361270928400,1.476928466796875,0.5742115080744028,-0.04396159906238317,-0.08152352368291467
1761140361280988400,1.486988525390625,0.39719899065494535,0.04007657432258129,0.01853043988160789
1761140361291047400,1.49704736328125,0.1818073504805565,0.12944003438353538,0.12521043398976325
1761140361301107500,1.507107421875,0.02037701759636402,0.18516630551964045,0.24222634601015597
1761140361311166200,1.517166259765625,-0.057173839595913885,0.2510682259723544,0.33085089733731
1761140361321226200,1.527226318359375,-0.0619961451858282,0.27023002256006,0.37487116778437046
1761140361331285200,1.53728515625,-0.06294657777845859,0.2415568857833743,0.33418216065187006
1761140361341345300,1.54734521484375,-0.08719079219698905,0.19446517200171945,0.2682662116738036
1761140361351405300,1.5574052734375,-0.1272691200852394,0.11444149495512246,0.20515023214519024
1761140361361464300,1.56746435546875,-0.13945230983197687,0.027124153769016265,0.11814287022370844
1761140361371524400,1.5775244140625,-0.1362409465700388,-0.0041653029859066,0.04063055494353175
1761140361381583400,1.587583251953125,-0.17568097655475137,-0.06175532216727733,-0.007104827036522329
1761140361391643400,1.597643310546875,-0.22043723312616348,-0.07941372845470905,-0.02799282636232674
1761140361401702400,1.607702392578125,-0.20433073245584962,-0.06905629283040761,-0.03356459861267358
1761140361411762200,1.61776220703125,-0.1460474703133106,-0.08410334757566451,-0.017469496119208634
1761140361421821400,1.627821533203125,-0.12197744341790676,-0.09612813189029693,0.005095934899523854
1761140361431881500,1.637881591796875,-0.11502806267142295,-0.10180822335332632,0.033320816452056166
1761140361441941200,1.647941162109375,-0.09775134917795658,-0.09709726918339728,0.05897212118953466
1761140361452000300,1.658000244140625,-0.05171089801490306,-0.11376432634592056,0.07920823247786611
1761140361462060500,1.668060546875,0.03840075006484985,-0.15541647942215203,0.11270908167194574
1761140361472119300,1.678119384765625,0.1758019725859165,-0.17377631197720764,0.09366024393942207
1761140361482179300,1.688179443359375,0.3469739472836256,-0.2555354345142841,0.04374569128938019
1761140361492238300,1.69823828125,0.44080841527879233,-0.33967531470805407,-0.005994162380881607
1761140361502298400,1.70829833984375,0.42498774581253523,-0.3653600833237171,-0.015636581603623925
1761140361512357000,1.718357177734375,0.3412725207716226,-0.3144420892521739,-0.02154945890922099
1761140361522417400,1.72841748046875,0.2605763512909412,-0.26746611080467697,0.03164506525956094
1761140361532477400,1.7384775390625,0.12680500970482825,-0.2483388010084629,0.09945099270269274
1761140361542536200,1.7485361328125,-0.04995265617072582,-0.2629007025852799,0.11777980906497687
1761140361552596200,1.75859619140625,-0.27617431791722774,-0.21419337030053137,0.10607384490855037
1761140361562655500,1.768655517578125,-0.38159225620031356,-0.0628150603532791,0.09967501071691512
1761140361572715300,1.77871533203125,-0.2934212207943201,0.014041092573106288,0.12292447847705333
1761140361582774500,1.7887744140625,-0.11131401058435439,0.0290004690349102,0.17765724506378172
1761140361592834300,1.798834228515625,0.0970925930082798,0.04630465505719185,0.20838932366427032
1761140361602893300,1.808893310546875,0.24426351439356803,0.11526099464446306,0.1583076342863962
1761140361612953300,1.818953369140625,0.32572599207162856,0.166175773845613,0.09572835545036941
1761140361623013400,1.829013427734375,0.36352293102443217,0.18523878623396156,0.0490134756244719
1761140361633072400,1.839072265625,0.3534031035482883,0.19187135611623524,0.026359306876361368
1761140361643132400,1.84913232421875,0.3133107471346855,0.25751433337181806,0.06941865986939519
1761140361653191400,1.85919140625,0.18960428796708584,0.3529033373326063,0.15656075408644973
1761140361663251500,1.86925146484375,0.1592757851988077,0.4620172075241804,0.2372767607787624
1761140361673310200,1.879310302734375,0.15051204850673675,0.5113464710995554,0.345069684564881
1761140361683370200,1.889370361328125,0.116799748519063,0.5417018618747592,0.42679019212462005
1761140361693429500,1.899429443359375,0.12861644304096698,0.5670289030939341,0.4691300352040678
1761140361703489300,1.9094892578125,0.11934709491431712,0.5749734323576092,0.5135865781765431
1761140361713549300,1.91954931640625,0.07079553771317004,0.5069622646659613,0.5208731184555218
1761140361723608300,1.9296083984375,0.20162264254093168,0.4463301013097167,0.3793797677826136
1761140361733668400,1.93966845703125,0.3614168986558914,0.2937877160191536,0.26842443444281816
1761140361743727400,1.949727294921875,0.3554799098223448,0.12450579285174608,0.1315559305589646
1761140361753787400,1.959787353515625,0.1866688190370798,-0.07136661559939383,-0.029366818129271267
1761140361763846400,1.969846435546875,-0.1560521469771862,-0.17426292645037172,-0.18432561691179872
1761140361773906400,1.979906494140625,-0.4548088835805654,-0.12147417007088661,-0.2250300408091396
1761140361783965400,1.98996533203125,-0.5619716197043657,-0.045320027934014795,-0.22303824593741445
1761140361794025500,2.000025390625,-0.509428362518549,-0.05661620571315288,-0.16264022013060747
1761140361804085200,2.010085205078125,-0.3646796998441219,-0.07284720954596996,-0.10604476494453846
1761140361814144300,2.020144287109375,-0.16065058068335056,-0.058492228718101974,-0.12595518794246016
1761140361824204500,2.03020458984375,0.014163549908995628,-0.05749298854768276,-0.14403792058918624
1761140361834263300,2.04026318359375,0.1081768816024065,-0.04252601330131292,-0.06458886509276926
1761140361844323300,2.0503232421875,0.12180910111367702,-0.021876608504354952,-0.03661514528971165
1761140361854382300,2.06038232421875,0.06774141083955765,-0.030976153022050857,-0.07049407054856419
1761140361864442400,2.0704423828125,-0.09990414329767226,-0.07789192571491002,-0.18994499116353689
1761140361874501400,2.08050146484375,-0.29401918668746946,-0.1409296889081597,-0.3535990645118057
1761140361884561400,2.0905615234375,-0.4923620769053697,-0.18655045335441828,-0.49095191784650083
1761140361894621400,2.100621337890625,-0.6179816762179136,-0.17139175492823122,-0.5525440853413194
1761140361904680200,2.11068017578125,-0.7244669514715671,-0.11523352211564779,-0.5252595899114385
1761140361914740200,2.120740234375,-0.7166057165771722,-0.006149170279502869,-0.4373794272108003
1761140361924799500,2.130799560546875,-0.6031798284053802,0.10804945583045482,-0.3213484711071476
1761140361934859300,2.140859375,-0.47203299010396,0.16979717921316623,-0.22992603268977252
1761140361944918300,2.150918212890625,-0.2912070518761873,0.21298077964037657,-0.16341650173272937
1761140361954978600,2.160978515625,-0.1257096156835556,0.19929829124659298,-0.1200112213788554
1761140361965037300,2.171037353515625,0.013645663514733314,0.1859767451196909,-0.11923256515655666
1761140361975097300,2.181097412109375,0.1552677186012268,0.14826251601427792,-0.1530338586019352
1761140361985157400,2.191157470703125,0.2529834119439125,0.08954670767337083,-0.22666882099211214
1761140361995216400,2.20121630859375,0.2942138324767351,0.06425181515812874,-0.2587297735761851
1761140362005276400,2.2112763671875,0.3050432695269584,0.05121580797433853,-0.2634462807040661
1761140362015335400,2.22133544921875,0.32060674936175343,0.060603521783649916,-0.2782810444055125
1761140362025395500,2.2313955078125,0.290170694565773,0.07591156555265188,-0.22449841815046964
1761140362035454200,2.2414541015625,0.27501988718509673,0.08714373818486928,-0.15477094806022942
1761140362045514200,2.25151416015625,0.3222685450941324,0.102689097841084,-0.09883450477216392
1761140362055573500,2.261573486328125,0.41336277447044845,0.0978136007592082,-0.03651497285086661
1761140362065633300,2.27163330078125,0.4842641106456518,0.04671645072847604,0.04079644956234842
1761140362075692300,2.2816923828125,0.5458078358888626,0.022711598023772237,0.05209335799384862
1761140362085752300,2.29175244140625,0.5078454772412777,-0.03042611792385578,0.08133370019923895
1761140362095812400,2.301812255859375,0.33485797755420205,-0.06315057591795921,0.1519252763055265
1761140362105871400,2.311871337890625,0.09830430688560009,-0.055855450473725796,0.18914521908797322
1761140362115931400,2.321931396484375,-0.08240531148612498,-0.02964139728695154,0.160216134788841
1761140362125990400,2.331990478515625,-0.10711305176317691,0.0031949966490268707,0.11958685848694293
1761140362136050400,2.342050537109375,0.0328302564561367,-0.03383446506261825,0.10696630023624748
1761140362146109400,2.352109375,0.24753742149770258,-0.08346329610645771,0.09678086017798632
1761140362156169500,2.36216943359375,0.25906653124988077,-0.12087825000435114,0.14167875370979308
1761140362166228200,2.372228271484375,0.2058364608436823,-0.10416267752498387,0.1298418931826949
1761140362176288300,2.382288330078125,0.08672375920712948,-0.05390753127634525,0.1568779302768409
1761140362186348500,2.3923486328125,-0.09033084378838539,-0.019001637589931487,0.26013828866723926
1761140362196407300,2.4024072265625,-0.24721534993648528,0.032744331738352776,0.34130550972577184
1761140362206467300,2.41246728515625,-0.4131687132030725,0.053038054965436454,0.3711161626324057
1761140362216526300,2.4225263671875,-0.44157413895428177,0.1275984981700778,0.30244817499984056
1761140362226586400,2.43258642578125,-0.34732933659255505,0.1679100502923131,0.21015881755482405
1761140362236645400,2.442645263671875,-0.17561024940609932,0.10015314962267875,0.15190953074712304
1761140362246705400,2.452705322265625,-0.03768646431565285,0.057089960704743856,0.08173734909668565
1761140362256764400,2.462764404296875,0.024088147073984146,0.048480245530605315,0.033251477542892094
1761140362266824200,2.47282421875,0.018419453787803648,0.08828501717448234,-0.013784341333061455
1761140362276883500,2.482883544921875,0.014966098463535308,0.12445055553317069,-0.032173034656420345
1761140362286943500,2.492943603515625,-0.042596448189020156,0.12263941445797681,0.018563100042194126
1761140362297003300,2.503003173828125,-0.1524701968371868,0.18038257837444543,0.06922014162261039
1761140362307062300,2.513062255859375,-0.25388299113214013,0.23474749802947042,0.07348083127439022
1761140362317122600,2.52312255859375,-0.26406828505992885,0.2867839747369289,-0.0035081907840445637
1761140362327181300,2.533181396484375,-0.2169236720472574,0.2742085708022117,-0.06944207727760077
1761140362337241300,2.543241455078125,-0.12435294037759304,0.22590572766512632,-0.11640596342850476
1761140362347300400,2.55330029296875,0.013317162212729453,0.17145985172837971,-0.16866989221628753
1761140362357360400,2.5633603515625,0.18032324940264224,0.14647154094427822,-0.22758432840183376
1761140362367419100,2.573419189453125,0.3424246134161949,0.14513678520917891,-0.21616251494903116
1761140362377479400,2.5834794921875,0.45429450431764123,0.1315598030164838,-0.2526019383456558
1761140362387538400,2.593538330078125,0.5007675016790628,0.09429331767857074,-0.28159130146466194
1761140362397598200,2.60359814453125,0.5018938753604889,0.052991877736151216,-0.26338574615586546
1761140362407658200,2.613658203125,0.4190694616794586,0.08888882828652858,-0.19750497808903456
1761140362417717500,2.623717529296875,0.2590799752533436,0.1525099443256855,-0.12730879450850188
1761140362427777300,2.63377734375,0.20356793138980864,0.2082008518874645,-0.10920761288963257
1761140362437836300,2.643836181640625,0.24840543650388716,0.1918818775102496,-0.13418759423680604
1761140362447896300,2.653896240234375,0.3352729880958795,0.12366320454776286,-0.19366386555619536
1761140362457955300,2.663955322265625,0.4041191453069448,0.0181862295538187,-0.2508868780560791
1761140362468015400,2.674015380859375,0.45988019549548625,-0.042808045113086696,-0.2977611862273887
1761140362478074400,2.684074462890625,0.46361645941436286,-0.07808890959173441,-0.30135658037085084
1761140362488134400,2.694134521484375,0.4007967228859663,-0.09969634576588869,-0.22590320691447704
1761140362498193200,2.704193115234375,0.30700901664197444,-0.09504939674288033,-0.16156243483126162
1761140362508253400,2.71425341796875,0.1932651485621929,-0.0893479702308774,-0.056093716209009284
1761140362518313500,2.7243134765625,0.02996902180612087,-0.06879939545989036,0.037331367267668246
1761140362528372200,2.734372314453125,-0.06789221748709678,-0.021534370937943456,0.034053806901723147
1761140362538432300,2.744432373046875,-0.11494915221631526,0.0126768184825778,0.023201902291364967
1761140362548491300,2.7544912109375,-0.17009294728934765,0.018908114087581633,-0.003617131051234901
1761140362558551300,2.76455126953125,-0.17955284955203532,0.015564064356684684,-0.04300185065213591
1761140362568610300,2.7746103515625,-0.1998836899191141,0.007420213128626346,-0.07149667171984911
1761140362578670300,2.78467041015625,-0.22056348985433577,-0.015384908397495746,-0.028709669394791124
1761140362588729300,2.794729248046875,-0.19784312400221823,-0.05019698632061481,0.04849113225080073
1761140362598789400,2.804789306640625,-0.16928689160346985,-0.03456482516378164,0.13714001430161296
1761140362608849400,2.814849365234375,-0.11192132882773875,-0.05760141735821962,0.1474623420799151
1761140362618908400,2.824908447265625,-0.0717208358645439,-0.09164806386679411,0.14165939142219722
1761140362628968200,2.83496826171875,-0.03965747212767601,-0.12331190689206123,0.05973422813583165
1761140362639027500,2.84502734375,-0.013496610432863234,-0.10376081872582435,-0.011772490053996443
1761140362649087500,2.85508740234375,-0.009582651859521864,-0.04646598309874534,-0.002102963628619909
1761140362659146200,2.865146240234375,-0.004189852905273437,0.02225625547170639,0.02307831244431436
1761140362669206300,2.875206298828125,0.002704582783579826,0.09613923780620097,0.10586385541968046
1761140362679265300,2.885265380859375,0.008631050223112106,0.16433014597892762,0.15446677748188375
1761140362689325300,2.8953251953125,0.07617956883907318,0.2090790960267186,0.12977850909028202
1761140362699384600,2.905384521484375,0.10624328319132327,0.18788374778479336,0.08837477781716734
1761140362709444400,2.9154443359375,0.12427929061949253,0.1737301347479224,0.07580054292622954
1761140362719503400,2.92550341796875,0.13306114749014378,0.13373217861950396,0.041510516115836796
1761140362729563100,2.935563232421875,0.12849953866302966,0.14577216050326824,0.047117578875273465
1761140362739623400,2.94562353515625,0.14423895958662034,0.1629170643106103,0.07887801414281129
1761140362749682200,2.95568212890625,0.17761165235638618,0.19856471627503633,0.08879366081636399
1761140362759742200,2.9657421875,0.1779500905305147,0.17669190716296435,0.12219068430978804
1761140362769801500,2.975801513671875,0.13017360935509203,0.17194529715776444,0.14827829810529947
1761140362779861200,2.985861328125,0.06428337934017181,0.1718614182665944,0.11523640819247812
1761140362789920300,2.995920166015625,0.04782499649226665,0.18354338049292562,0.09733860365860164
1761140362799980300,3.005980224609375,0.024589666855335233,0.16952566879540681,0.11799926050193607
1761140362810039300,3.016039306640625,-0.022524551019072532,0.14518588504791258,0.12340864526480436
1761140362820099300,3.026099365234375,-0.049966100174188614,0.10641980880200862,0.08393434768430888
1761140362830159000,3.0361591796875,-0.07832417965233325,0.06247837574481964,0.044672962202131745
1761140362840218400,3.04621826171875,-0.0965431424319744,-0.028486089771986006,-0.010699161734059453
1761140362850278400,3.0562783203125,-0.16238953330516814,-0.11703618762344122,-0.101559618887119
1761140362860337200,3.066337158203125,-0.19872633657753466,-0.19133534954339265,-0.15904380307383834
1761140362870397400,3.0763974609375,-0.22422551949322223,-0.2572059980750084,-0.2054303277282044
1761140362880456200,3.086456298828125,-0.18704174400269985,-0.30965017880052326,-0.21598964260015635
1761140362890516200,3.09651611328125,-0.1189689092516899,-0.3560018878698349,-0.2488573449898511
1761140362900575200,3.1065751953125,-0.12339023282527922,-0.37445582844913006,-0.23975681409146635
1761140362910635300,3.11663525390625,-0.20431319679915905,-0.3598562252104282,-0.21873466699197888
1761140362920694300,3.1266943359375,-0.2666951264321804,-0.32185382681339975,-0.2055125991841778
1761140362930754300,3.13675439453125,-0.2843172923624515,-0.2579451260045171,-0.1819808804165572
1761140362940813300,3.146813232421875,-0.2598977213770151,-0.22604221352636814,-0.15147742294017225
1761140362950873300,3.156873291015625,-0.20262334401607512,-0.24552082097828387,-0.17087054406572133
1761140362960933000,3.16693310546875,-0.10129530539512634,-0.2607093300208449,-0.21987262151334433
1761140362970992400,3.176992431640625,0.04879588735103607,-0.2342997542619705,-0.23716763784848152
1761140362981052200,3.18705224609375,0.15751929692029953,-0.2338441194489598,-0.21586524903550744
1761140362991111200,3.197111083984375,0.17109598685204983,-0.24332944841384888,-0.18045553401280193
1761140363001171500,3.20717138671875,0.1149129118591547,-0.19432517900913954,-0.17558540722578764
1761140363011230200,3.217230224609375,0.0065735331714153284,-0.11815379347652197,-0.13394688081610948
1761140363021290200,3.227290283203125,-0.08478431557714938,-0.02695785729140043,-0.01878766604568809
1761140363031349200,3.237349365234375,-0.14710077875852584,0.0920841171965003,0.05750394833311438
1761140363041409300,3.2474091796875,-0.17284429182410238,0.1455316297456622,0.13779464228544383
1761140363051468300,3.25746826171875,-0.13926117117404938,0.21718992176800964,0.1436163707088679
1761140363061528300,3.2675283203125,0.019324293673038482,0.26029694982767104,0.061826816500909626
1761140363071588400,3.27758837890625,0.21992343838512896,0.2810468923896551,0.057380212355591355
1761140363081647000,3.287647216796875,0.42219665378928184,0.2626455587804317,0.04658613887969404
1761140363091707100,3.29770703125,0.58760758074224,0.2727127792865038,-0.015930924907699227
1761140363101766400,3.307766357421875,0.6887257760047912,0.2613908825442195,-0.05813406293019652
1761140363111826200,3.317826171875,0.7216472178757191,0.24640052642226218,-0.08747417571563273
1761140363121885200,3.32788525390625,0.6540893469095229,0.2151931949928403,-0.10004523226879536
1761140363131945500,3.337945556640625,0.5100701675534248,0.22740385726839302,-0.07838285103701055
1761140363142004200,3.348004150390625,0.3578524841725826,0.2671414088949561,-0.025519604649208483
1761140363152064300,3.358064208984375,0.2645516846626997,0.3038289253011346,0.05309822418745607
1761140363162123300,3.368123291015625,0.23841829549670218,0.34059359859675165,0.09450951771251857
1761140363172183300,3.378183349609375,0.3163835787087679,0.3301724500864744,0.13149521334767342
1761140363182242000,3.388241943359375,0.41312545858323574,0.2766615169122815,0.12308701209500432
1761140363192302300,3.39830224609375,0.47397301825582977,0.22882979841828344,0.11260178537257015
1761140363202362400,3.4083623046875,0.4297118517249822,0.15396452704817057,0.08701521643437445
1761140363212421000,3.418421142578125,0.2847457469075918,0.08408172026574612,0.06012333705127239
1761140363222481200,3.428481201171875,0.15725041685104368,0.04603256011754274,-0.032406806879676876
1761140363232540400,3.43854052734375,0.03650222296714783,-0.03188859169185161,-0.05975625730454921
1761140363242600200,3.44860009765625,-0.10590776762664317,-0.10006693264394997,-0.008352963934093714
1761140363252659200,3.4586591796875,-0.14709902519285678,-0.08763093717992305,0.022442608356662095
1761140363262719200,3.46871923828125,-0.204419579783082,-0.040433132675290105,0.06849025644548237
1761140363272778200,3.4787783203125,-0.3312666750639677,-0.06163958683311939,0.12047949647773057
1761140363282838300,3.48883837890625,-0.465733013176918,-0.07707008793801069,0.1023313339119777
1761140363292897300,3.498897216796875,-0.5217325482964515,-0.09274375014901161,0.07219375060591847
1761140363302957300,3.508957275390625,-0.5293266566872596,-0.12656857060045004,0.07054050350617617
1761140363313017300,3.519017333984375,-0.5093056129217147,-0.14441694650202988,0.07675985294505953
1761140363323076400,3.529076416015625,-0.43864743785262106,-0.15160218183100221,0.07663487485852093
1761140363333136400,3.539136474609375,-0.34578035358488557,-0.1867564973205328,0.03767513920404017
1761140363343195100,3.549195068359375,-0.26627894684672354,-0.2571145203992724,-0.014264306869730353
1761140363353255200,3.559255126953125,-0.2871002010792494,-0.268493700286746,0.031976489171013235
1761140363363314200,3.569314208984375,-0.39444472351074217,-0.21943331678062675,0.06855959535464644
1761140363373374200,3.579374267578125,-0.5169844769865274,-0.1745671700939536,0.11691219591759144
1761140363383433200,3.58943310546875,-0.5442997694134711,-0.14776304205954074,0.1514812223324552
1761140363393493200,3.5994931640625,-0.4704267239511013,-0.1324105746269226,0.15047036478947848
1761140363403552300,3.60955224609375,-0.26281156299710273,-0.13446224645972252,0.13067816134374588
1761140363413612300,3.6196123046875,-0.027515783435106276,-0.14411825581640003,0.07916011901982128
1761140363423671300,3.62967138671875,0.18175532803237437,-0.16911533442884683,0.027556553836911916
1761140363433731300,3.6397314453125,0.2926934910416603,-0.14628274037390945,-0.03298336465861648
1761140363443791000,3.649791015625,0.2905786908447742,-0.11557985133528709,-0.05355057106483727
1761140363453850400,3.659850341796875,0.15128712453246115,-0.02951251021027565,-0.014005838596634566
1761140363463910400,3.669910400390625,0.02224398051202297,0.06961100410372019,0.07854534812234341
1761140363473969200,3.67996923828125,-0.09506547109484673,0.12356646617501973,0.1607230979302898
1761140363484029200,3.690029296875,-0.12012567807137965,0.1926271429196,0.20214542430602012
1761140363494088200,3.700088134765625,-0.06412672747373581,0.23325696721076963,0.17894867311380802
1761140363504148200,3.710148193359375,0.03315174349546432,0.21171499748826025,0.1152289190057665
1761140363514207500,3.72020751953125,0.12071019996106624,0.19963000741899012,0.01764572946894914
1761140363524267300,3.730267333984375,0.12915303413569926,0.19470891762971876,-0.04860526014976203
1761140363534326300,3.740326171875,0.09891922391355037,0.17944705109000206,-0.08236454108431934
1761140363544386300,3.75038623046875,0.08364975858926772,0.18913725497722625,-0.03991718250978738
1761140363554446300,3.7604462890625,0.09997720853388309,0.21556670448035,0.05192424850463867
1761140363564505300,3.77050537109375,0.02565466573834419,0.2502440501078963,0.1921451315563172
1761140363574565000,3.780565185546875,0.03480477139949798,0.32297581658065316,0.18468842234220353
1761140363584624400,3.790624267578125,0.06537643527388572,0.32095512440800666,0.17711806015316395
1761140363594684400,3.800684326171875,0.03783084122240543,0.27887656261324884,0.2158474941831082
1761140363604743200,3.8107431640625,0.11102525677084922,0.21928864761292932,0.1461121695799753
1761140363614803200,3.82080322265625,0.19138064998984336,0.16273820061236619,0.01621240873020142
1761140363624862200,3.8308623046875,0.23601123435497282,0.10447305864840745,-0.03305624723173678
1761140363634922200,3.840922119140625,0.2595803259909153,0.05361731615811586,-0.08137669909074902
1761140363644981500,3.8509814453125,0.3641062838703394,0.022068623945116994,-0.12817271786145865
1761140363655041300,3.861041259765625,0.3492471529126167,-0.04701806402355432,-0.037237588036991655
1761140363665100300,3.871100341796875,0.2552648008793592,-0.032055764952301974,0.06465875199120491
1761140363675160000,3.88116015625,0.07924480162858963,0.002044365309178829,0.17186828639879823
1761140363685220400,3.891220458984375,-0.09466741168797016,0.0414200978860259,0.2233984575519338
1761140363695279400,3.901279296875,-0.12829904765486716,0.05877689087837934,0.24448530391808598
1761140363705339100,3.911339111328125,-0.02032908680140972,0.005441898792982101,0.19578023665565997
1761140363715398400,3.9213984375,0.16797639352679253,-0.041560675400495524,0.19614103279206901
1761140363725458400,3.93145849609375,0.31936230225861073,-0.10210457595139741,0.20338570669069886
1761140363735517200,3.94151708984375,0.4102513644516468,-0.14572627553492784,0.1799469634361565
1761140363745577500,3.951577392578125,0.3905927242577076,-0.2021250391051173,0.13432587019633502
1761140363755636500,3.961636474609375,0.28083412642180916,-0.26701573668867346,0.13056662726067006
1761140363765696500,3.971696533203125,0.14146131156682967,-0.2875157961428165,0.11591489197593181
1761140363775755500,3.981755615234375,-0.0223603003680706,-0.2941384291529655,0.09088763742092996
1761140363785815600,3.991815673828125,-0.1698246517419815,-0.29194062684774397,0.0955338923241943
1761140363795874600,4.00187451171875,-0.2922100914388895,-0.28139439065307376,0.06950546137001365
1761140363805934300,4.011934326171875,-0.3836252233326435,-0.2702043035969138,0.07998097041603178
1761140363815993600,4.02199365234375,-0.3473129699796438,-0.2301385429292917,0.06649078972395508
1761140363826053600,4.0320537109375,-0.2290583464771509,-0.19007658165395258,0.041619821709208187
1761140363836113400,4.042113525390625,-0.12625380556285382,-0.18427870903015137,0.02452617316506803
1761140363846172700,4.052172607421875,-0.05532791946828365,-0.1694055495470762,0.021085494659282267
1761140363856232400,4.062232421875,-0.03695931908488274,-0.1332072779625654,0.001541384223103523
1761140363866291500,4.07229150390625,-0.10119535215198994,-0.1030941715106368,0.004909362818859517
1761140363876351500,4.0823515625,-0.11487491793632507,-0.06145633922070264,0.0033522330373525616
1761140363886410500,4.092410400390625,-0.11415303340256214,-0.047487727361917496,-0.023255641772598028
1761140363896470500,4.102470458984375,-0.08034136469364166,-0.054710664352774614,-0.09424155095871538
1761140363906529500,4.112529541015625,-0.057228784653544425,-0.04676525830626487,-0.13886599784400314
1761140363916589600,4.122589599609375,-0.06563070229589939,-0.015713409699499605,-0.17276899809818713
1761140363926648600,4.132648681640625,-0.10868833825588226,-0.006752104608714581,-0.18871610695570706
1761140363936708400,4.142708251953125,-0.14063129048347472,0.018904606956243512,-0.20663805955015122
1761140363946767600,4.152767578125,-0.1632189698666334,0.07537731254547834,-0.17801855265684424
1761140363956827400,4.162827392578125,-0.16305530373752117,0.1331011872395873,-0.133982755847089
1761140363966887400,4.172887451171875,-0.12810031021237372,0.16022446422576903,-0.09072057375833392
1761140363976946700,4.18294677734375,-0.06408990259468555,0.1729693795084953,-0.060141274566762146
1761140363987006500,4.19300634765625,0.050045010629296297,0.16907178754806518,-0.08948694031015038
1761140363997065500,4.2030654296875,0.14459785602688788,0.17307108631730078,-0.1600642321627587
1761140364007125500,4.21312548828125,0.19701894813776016,0.2278457558169961,-0.18044026337843388
1761140364017184500,4.2231845703125,0.2451876435011625,0.2868877273723483,-0.17837098282370714
1761140364027244500,4.23324462890625,0.23875381106138227,0.32737726640999315,-0.17468750853799284
1761140364037303600,4.243303466796875,0.16413140853643415,0.3336629225507378,-0.14278631309289486
1761140364047363600,4.253363525390625,0.10630699607729911,0.3847615338861942,-0.14322788284793495
1761140364057422600,4.263422607421875,0.07228314592242241,0.4298217418402433,-0.11542217655554413
1761140364067482400,4.273482421875,0.10552432126700878,0.45902562449276446,-0.058163069828972215
1761140364077541600,4.283541748046875,0.15807050106227397,0.4552741630047559,-0.013381459620594978
1761140364087601400,4.293601318359375,0.30205344006121154,0.4273576898142695,-0.00046506022848188873
1761140364097661400,4.303661376953125,0.4779238017082214,0.31081337736099957,-0.011572437437251209
1761140364107720700,4.313720703125,0.5824409917593002,0.20240823996067045,-0.0647909635361284
1761140364117780500,4.323780517578125,0.6057382807165383,0.13171265549063682,-0.11226919241733849
1761140364127839500,4.333839599609375,0.622414105707407,0.10860212127715349,-0.1439065127618611
1761140364137899500,4.3438994140625,0.5777858594298363,0.04522475086599588,-0.15106876907404512
1761140364147958500,4.35395849609375,0.4518985490918159,0.004748655831813812,-0.10227540247365832
1761140364158018600,4.3640185546875,0.26595629076361654,-0.027442718198895454,-0.03703570878934115
1761140364168077600,4.37407763671875,0.13411328689157961,-0.028713176526129244,0.01167823589928448
1761140364178137600,4.3841376953125,0.04348959763646126,-0.07665332383066416,0.04369125768840313
1761140364188196400,4.3941962890625,-0.07858253832757472,-0.1314566349029541,0.04677055553589016
1761140364198256400,4.40425634765625,-0.16767478023171423,-0.16121084491461515,0.03602521657254547
1761140364208315600,4.414315673828125,-0.1877805796712637,-0.1717258091881871,0.013640548948198557
1761140364218375400,4.42437548828125,-0.16597382153272627,-0.2292535767883062,0.014346066869050263
1761140364228434700,4.4344345703125,-0.11686521497070788,-0.2827522350028157,0.009739340258575976
1761140364238494700,4.44449462890625,-0.07615443439781665,-0.30712036806195975,-0.016112309356592594
1761140364248554500,4.454554443359375,-0.048536359632015226,-0.35410452981591223,-0.030918029626645145
1761140364258613500,4.464613525390625,-0.05216156439185142,-0.3676081545114517,-0.06881221840884535
1761140364268673500,4.474673583984375,-0.09014613487124443,-0.3265001913145184,-0.08302011891622096
1761140364278732500,4.484732666015625,-0.1894616646260023,-0.2719043855130672,-0.05408906185571104
1761140364288792600,4.49479248046875,-0.3386117771297693,-0.17969284254461526,0.020758418129384518
1761140364298851600,4.5048515625,-0.41944530925452705,-0.07547142056971788,0.06470945926513523
1761140364308911600,4.51491162109375,-0.3756745565891266,-0.0030769232273101803,0.11636073604729026
1761140364318970400,4.524970458984375,-0.31028935348689557,-0.0030459435671567913,0.13232377312630414
1761140364329030400,4.535030517578125,-0.21398586502969263,0.047049920466542244,0.15177026840690522
1761140364339089700,4.545089599609375,-0.04402618873119354,0.10833470251262187,0.15547474894803018
1761140364349149400,4.5551494140625,0.10622107135951518,0.11464958474785089,0.14876348780635743
1761140364359208700,4.565208740234375,0.22700959725379943,0.11112608679682015,0.15516535420529542
1761140364369268500,4.5752685546875,0.2451145782649517,0.13659049066007137,0.13329057233184574
1761140364379327500,4.585327392578125,0.23395897800028323,0.15698679747879504,0.06346435457486659
1761140364389387500,4.595387451171875,0.15160159730911255,0.19464403569996355,0.0634840456560254
1761140364399447600,4.605447509765625,0.06677461163401603,0.22973463830351828,0.0672881871793419
1761140364409506600,4.615506591796875,0.032062194693088526,0.2961412934079766,0.07413103881143034
1761140364419566600,4.625566650390625,0.08342939383685588,0.3602773732319474,0.08962039396408945
1761140364429625600,4.63562548828125,0.170034495100379,0.3890153919383883,0.06516052750088275
1761140364439685600,4.645685546875,0.31966216198801994,0.38905543168783185,0.07014160384908318
1761140364449744400,4.655744384765625,0.4307166448533535,0.3820151577875018,0.07345328568033874
1761140364459804400,4.665804443359375,0.4649935929864645,0.3824515033781528,0.04663856318667531
1761140364469863400,4.675863525390625,0.4214788609087467,0.3593289864659309,0.01876633099671453
1761140364479923500,4.68592333984375,0.3352279799103737,0.35215105766057964,0.04613887003622949
1761140364489982700,4.695982666015625,0.256636089232564,0.36799072408825156,0.06780216458346694
1761140364500042500,4.70604248046875,0.19293080204129218,0.30831366949975486,0.07088690579105168
1761140364510101500,4.7161015625,0.1477729789316654,0.27209756999760865,0.07622976465635001
1761140364520161500,4.72616162109375,0.16712649869918822,0.21489187395870685,0.029604645473137497
1761140364530220500,4.736220458984375,0.20793255634009836,0.1232584231391549,-0.04119016158767044
1761140364540280600,4.746280517578125,0.29018589213490487,0.02651917361319065,-0.04693129905555397
1761140364550340400,4.75634033203125,0.3536602931797504,-0.056331543552875514,-0.0472130386063829
1761140364560399600,4.766399658203125,0.32556057237684727,-0.10958733292222023,-0.0477760427840054
1761140364570459600,4.776459716796875,0.2018307323336601,-0.1642126570791006,0.0045270855030044915
1761140364580518400,4.786518310546875,0.020591537129878996,-0.19376520703881978,0.006994973453879356
1761140364590578400,4.796578369140625,-0.10767769990861416,-0.215473473238945,0.021115743667073545
1761140364600637400,4.806637451171875,-0.16952245392501353,-0.261166133877635,-0.027559768707305192
1761140364610697500,4.816697509765625,-0.16816811670660972,-0.33873744933605193,-0.1035032637681812
1761140364620756700,4.8267568359375,-0.1706166789025068,-0.40677842764407396,-0.1938531775832176
1761140364630816500,4.83681640625,-0.25981647283434867,-0.4429635474860668,-0.21992537461388856
1761140364640875500,4.84687548828125,-0.34441549497246743,-0.42625031309425826,-0.21418591764643788
1761140364650935300,4.856935302734375,-0.38970600455105303,-0.37013796525001524,-0.1778596357680857
1761140364660994600,4.86699462890625,-0.26572540461719035,-0.25965777514129873,-0.11662939692083746
1761140364671054600,4.8770546875,-0.17457213853001594,-0.23046879779696464,-0.10535491951685398
1761140364681113600,4.887113525390625,-0.12114508424699305,-0.2386959433943033,-0.09379914095345884
1761140364691173600,4.897173583984375,-0.12890110520124434,-0.1359615451067686,-0.09528780860863625
1761140364701232400,4.907232421875,-0.17959493512809274,-0.08241612514108419,-0.055696131726168094
1761140364711292400,4.91729248046875,-0.19358897368907926,-0.04453033886104822,-0.052513117775879796
1761140364721352700,4.927352783203125,-0.1265320379823446,0.02497252869307995,-0.06666373513806612
1761140364731411500,4.937411376953125,-0.0765706139832735,0.08161094623804092,-0.05274776678197086
1761140364741471500,4.947471435546875,-0.005490414109826087,0.15311843161284922,-0.0428370885444805
1761140364751530200,4.9575302734375,0.08393792788088321,0.1843053047761321,-0.016360183170437814
1761140364761590300,4.96759033203125,0.1528799466818571,0.19977555336952207,0.026734021940268575
1761140364771649300,4.977649169921875,0.22611878589391707,0.1879386928424239,-0.04486344327293336
1761140364781709300,4.987709228515625,0.29323534283339975,0.13458470379561185,-0.12278927125744521
1761140364791768300,4.997768310546875,0.3056646162956953,0.10740180557668208,-0.13552600323371589
1761140364801828400,5.007828369140625,0.26505495800971984,0.07751286326944827,-0.08893920676689594
1761140364811887400,5.017887451171875,0.19118132802546023,0.10515461117178201,-0.0277151053994894
1761140364821947400,5.027947509765625,0.12152326990962027,0.12359335418194532,0.020583207692950963
1761140364832006100,5.038006103515625,0.06351414853334426,0.030071605397760867,0.03357906552944332
1761140364842066200,5.048066162109375,0.09325286871492862,-0.06461217290312052,0.04157499618679285
1761140364852125200,5.058125244140625,0.21066344260871409,-0.14603841022402048,-0.006768069362826645
1761140364862185200,5.068185302734375,0.34859365743994714,-0.25211159754544493,-0.04808941958211362
1761140364872244500,5.078244384765625,0.4517489114880562,-0.3148264123946428,-0.05166157898046076
1761140364882304300,5.08830419921875,0.4089718460351228,-0.3262406635954976,-0.023859270221553742
1761140364892364300,5.0983642578125,0.1669751075297594,-0.36512598230689763,0.05565357122607529
1761140364902423300,5.10842333984375,-0.2257692418038845,-0.29949674131572246,0.08758983798455447
1761140364912483300,5.1184833984375,-0.6309960560917854,-0.2391150455892086,0.10393822111934423
1761140364922542300,5.128542236328125,-0.9766472303390502,-0.19242489834576845,0.11018230314068496
1761140364932602000,5.13860205078125,-1.2466209400504826,-0.20738632063418624,0.14273282933998852
1761140364942661400,5.148661376953125,-1.3068874849647283,-0.2398009820267558,0.12245108881164342
1761140364952721400,5.158721435546875,-1.2105261288404463,-0.24579087009131906,0.09280070450063795
1761140364962780200,5.1687802734375,-1.0801257249921559,-0.22545418450534344,0.12300353506263345
1761140364972840200,5.178840087890625,-0.9379857835114002,-0.1893143651098013,0.083096033696644
1761140364982899200,5.188899169921875,-0.8019564338654279,-0.1779021597355604,0.07838504299409688
1761140364992959200,5.198959228515625,-0.662923810750246,-0.16146218932718037,0.1110419887099415
1761140365003018500,5.2090185546875,-0.5268535445719957,-0.11589227828532457,0.08744308645762502
1761140365013078300,5.219078369140625,-0.38937925681471824,-0.035576924815773965,0.0393799703605473
1761140365023137300,5.22913720703125,-0.2586825003683567,-0.005981704758107662,0.019682459460943935
1761140365033197000,5.239197021484375,-0.156819039696455,0.009554887069761752,0.019284948043338954
1761140365043256300,5.24925634765625,-0.02957388500869274,0.06692600280344486,-0.05434252516012639
1761140365053316400,5.25931640625,0.07011807684302329,0.12776479464769364,-0.0946934229120612
1761140365063375400,5.269375244140625,0.15063012192845343,0.17609189544320106,-0.033996816017478705
1761140365073435400,5.279435302734375,0.2343167053967714,0.21594956631809473,-0.04648406674470752
1761140365083495400,5.289495361328125,0.32155133673548697,0.25313509537428613,-0.02838924180138856
1761140365093554200,5.29955419921875,0.326620310562849,0.31279139943569895,-0.05729319165926426
1761140365103614200,5.3096142578125,0.56783846591115,0.32919308366030453,-0.16435133489742873
1761140365113673200,5.319673095703125,0.6798796217262745,0.2686772401601076,-0.09360518928393721
1761140365123733200,5.329733154296875,0.6822831757366656,0.30247867973595854,-0.02195497097019106
1761140365133792300,5.339792236328125,0.6741273418098688,0.36624563398659227,-0.0175894327044487
1761140365143852300,5.349852294921875,0.6109773504137993,0.40785394792109725,0.05182531817480921
1761140365153911300,5.359911376953125,0.5852291611731052,0.3992550464019179,0.09824253022838383
1761140365163971000,5.36997119140625,0.6119137544810772,0.4058358860969543,0.08657083366774022
1761140365174030300,5.3800302734375,0.6415531059414148,0.4031853715881705,0.046469526762701566
1761140365184090400,5.39009033203125,0.6922685631781816,0.3650885729059577,0.016533347780257463
1761140365194149400,5.4001494140625,0.7055079839795827,0.2878334837898612,-0.001270714055560529
1761140365204209400,5.41020947265625,0.6423755282402038,0.24849106896072626,0.012949790205061436
1761140365214268200,5.42026806640625,0.5697632964938879,0.18828005362600087,0.05008797298818826
1761140365224328200,5.430328125,0.5168558821707964,0.1639081211745739,0.14745477982796729
1761140365234387200,5.44038720703125,0.4499579364180565,0.12491758852303027,0.2441440161997452
1761140365244447200,5.450447265625,0.3454840009868145,0.09087386462390422,0.3016937399033457
1761140365254506200,5.46050634765625,0.23052549642026424,0.0688347590342164,0.3611301176037639
1761140365264566300,5.470566162109375,0.10959025553166865,0.038969489863514895,0.3897192293588072
1761140365274626300,5.480626220703125,-0.026040450185537335,0.0308238850697875,0.4042089059496298
1761140365284685300,5.490685302734375,-0.1416740775346756,0.057393327565491196,0.37028186723273243
1761140365294745000,5.5007451171875,-0.24738310771882532,0.03533639405816793,0.33896910266745833
1761140365304804400,5.510804443359375,-0.314205065625906,-0.012817395997047424,0.2915863335173577
1761140365314864000,5.520864013671875,-0.391641941049695,-0.0788625243127346,0.2037990732645616
1761140365324923400,5.53092333984375,-0.41903263680040836,-0.14193185168802738,0.09468016157168894
1761140365334983400,5.5409833984375,-0.430193497762084,-0.1457820973753929,0.015039675156399607
1761140365345042200,5.551042236328125,-0.42782852219641204,-0.14519640644192694,-0.03742605981379747
1761140365355102200,5.561102294921875,-0.43722704966068265,-0.1020876248165965,-0.01001015655659139
1761140365365161200,5.5711611328125,-0.512402994415164,-0.07980915751308203,-0.05768087580259889
1761140365375221200,5.58122119140625,-0.5655068080931902,-0.07168664133399724,-0.04799019699133932
1761140365385280300,5.5912802734375,-0.5229179586887359,-0.016772271102666853,-0.08674969736598431
1761140365395340300,5.60134033203125,-0.3492524136096239,0.030558804392814633,-0.16577665499281138
1761140365405399300,5.6113994140625,-0.09558803366422652,-0.04173661648929119,-0.2698327668707818
1761140365415459000,5.621458984375,0.1416606335312128,-0.10078618682920933,-0.3712231301382184
1761140365425518300,5.631518310546875,0.28969606279134746,-0.1272346332937479,-0.39666952342074363
1761140365435578400,5.641578369140625,0.39650224056243893,-0.1205965104535222,-0.4511204408587888
1761140365445637000,5.65163720703125,0.4764654195934534,-0.1382271519511938,-0.47565790260285135
1761140365455697400,5.661697509765625,0.45618893976211544,-0.13225216919481753,-0.4827290100328624
1761140365465757400,5.67175732421875,0.5917226148456335,-0.11145984879583119,-0.5527916668942198
1761140365475816200,5.681816162109375,0.6553343785345555,-0.12918459831774234,-0.5930906883284449
1761140365485876200,5.691876220703125,0.6734305917173624,-0.10142682282030582,-0.5543997962106019
1761140365495935200,5.701935302734375,0.6812327899008989,0.00013268646895885466,-0.5186443364901467
1761140365505995300,5.711995361328125,0.7322679806113243,0.07958528562933206,-0.412285464095138
1761140365516054300,5.72205419921875,0.861181360772252,0.10091595068871974,-0.329796273717843
1761140365526114300,5.7321142578125,1.0372112968951464,0.07528758843541145,-0.24642533206995576
1761140365536173300,5.74217333984375,1.2297913858026266,0.06933218716233969,-0.21870573315843939
1761140365546233000,5.752233154296875,1.46596920889616,0.04767974280267954,-0.18733279937114566
1761140365556292400,5.762292236328125,1.5961860728710888,0.025641513995826242,-0.18895663771331309
1761140365566352400,5.772352294921875,1.6414391730487345,0.052882572142779825,-0.17773491340987382
1761140365576411100,5.7824111328125,1.5472306110441685,0.12551643119901418,-0.10027779891565441
1761140365586471400,5.792471435546875,1.2837947786688804,0.20861498564630745,0.01891132895797491
1761140365596530200,5.8025302734375,0.8786936365872621,0.2871989852786064,0.08708345936499536
1761140365606590200,5.812590087890625,0.41312838119268414,0.3374930022329092,0.16794033583272247
1761140365616649200,5.822649169921875,-0.040055531534552574,0.3448413191691041,0.1715137738727033
1761140365626709200,5.832709228515625,-0.4217266981899738,0.3107765524819493,0.14364037263896315
1761140365636768300,5.842768310546875,-0.7610755574226379,0.2326625084489584,0.17776242247130722
1761140365646828300,5.852828369140625,-1.1167547892093659,0.1562365636333823,0.1748048513073474
1761140365656888300,5.862888427734375,-1.402999250242114,0.0881584681853652,0.13539233038406817
1761140365666947300,5.872947265625,-1.617097927996516,0.051610360249876974,0.1002027609180659
1761140365677007000,5.883007080078125,-1.7764099535524844,-0.06031973640620708,0.07651446334924548
1761140365687066400,5.89306640625,-1.809900719743967,-0.12956541432887314,0.09956935838535427
1761140365697126400,5.90312646484375,-1.7399223436325788,-0.14088526524454353,0.13553298096377403
1761140365707185200,5.91318505859375,-1.585010598862171,-0.14768120899498463,0.18291965910401195
1761140365717245400,5.923245361328125,-1.3899953917622565,-0.15969547191560268,0.20949052637182175
1761140365727304200,5.93330419921875,-1.1161077234774828,-0.2036237532302737,0.18375731550455093
1761140365737364200,5.9433642578125,-0.7756827594459056,-0.33118542652130123,0.08253927659671753
1761140365747424000,5.953424072265625,-0.42130058173239227,-0.4806149404883384,0.033020189537666736
1761140365757483800,5.96348388671875,-0.13563245928287504,-0.5706570304632187,0.0003274053234606981
1761140365767542800,5.973542724609375,0.06855798791944981,-0.5842115085631608,-0.051124841755256056
1761140365777602600,5.9836025390625,0.2553010412365198,-0.5861673188060522,-0.04376344614177942
1761140365787661800,5.993661865234375,0.36443069351911545,-0.7195075754985213,-0.014223755663633346
1761140365797721900,6.003721923828125,0.3899158479094505,-0.7942614954486489,-0.11841416144575923
1761140365807780900,6.01378076171875,0.31816110977530476,-0.7125216621339321,-0.19065419887881724
1761140365817841000,6.0238408203125,0.20982290013134478,-0.5902551726415753,-0.23746548828389494
1761140365827899600,6.033899658203125,0.20151567503511905,-0.42254532109647985,-0.260078594369255
1761140365837959700,6.043959716796875,0.18710721045434475,-0.32193799796551464,-0.24459870116468518
1761140365848019000,6.05401904296875,0.1372422325670719,-0.21353958256691694,-0.1533565146850422
1761140365858078700,6.06407861328125,0.07261573887765407,0.0025958617120981214,-0.07745386309120804
1761140365868137700,6.0741376953125,-0.039455812075734134,0.23559943868368863,-0.06421575746405869
1761140365878197800,6.08419775390625,-0.14468553431034087,0.3477645131394267,-0.03158796477746218
1761140365888256800,6.0942568359375,-0.2761316478192806,0.41439854725897307,-0.027111184689588844
1761140365898316800,6.10431689453125,-0.3834083657115698,0.5230088518425822,-0.10429843273386359
1761140365908376600,6.11437646484375,-0.38333530047535896,0.6611728754296898,-0.18125179895702748
1761140365918435800,6.124435791015625,-0.35533553291559217,0.7602198173761368,-0.18553491963632404
1761140365928495900,6.134495849609375,-0.2563286307185888,0.809192522598803,-0.19125015547797083
1761140365938555000,6.144554931640625,-0.13183482056558132,0.8658046366587281,-0.2236325951013714
1761140365948615000,6.154614990234375,0.010957447344064711,0.8796414388313889,-0.2992803951513022
1761140365958673700,6.164673583984375,0.20842004759609697,0.8758984529107808,-0.38518516612574455
1761140365968733700,6.174733642578125,0.49865211696028705,0.8492579910054803,-0.40890776782296595
1761140365978792700,6.184792724609375,0.77830434012115,0.7853530895888805,-0.2749330856844783
1761140365988852700,6.194852783203125,1.0011597403049468,0.7559583605393767,-0.23635493322610854
1761140365998911700,6.204911865234375,1.2580500965595245,0.7186410217970609,-0.24968203231096267
1761140366008971800,6.2149716796875,1.5154682760804892,0.5486798841938376,-0.1991295836161822
1761140366019030800,6.22503076171875,1.7342887216597795,0.3663242521807551,-0.17410532473586499
1761140366029090800,6.2350908203125,1.8910995780497788,0.1851990387454629,-0.1855388651590794
1761140366039149800,6.24514990234375,1.8325719857573508,0.006386778427660465,-0.28131241145804525
1761140366049209900,6.2552099609375,1.6108967352688313,-0.11903145309388637,-0.4677588929813355
1761140366059268600,6.2652685546875,1.2852432239115237,-0.24524609569013117,-0.5859099830441177
1761140366069329000,6.275328857421875,0.8241922310709953,-0.3167833916813135,-0.5593899326480924
1761140366079387600,6.2853876953125,0.3522849131733179,-0.2560509828209877,-0.4694036645136773
1761140366089447700,6.29544775390625,-0.03322071707844734,-0.15085837772637606,-0.32471747261621053
1761140366099507000,6.3055068359375,-0.3535129936635494,-0.09429682480990886,-0.15965265568718312
1761140366109566700,6.315566650390625,-0.6395902814358473,-0.11684972514063119,-0.002295855852216482
1761140366119626800,6.325626708984375,-0.8715840968430042,-0.11557283707261085,0.19287403035275638
1761140366129685800,6.335685791015625,-1.018095677536726,-0.09593319384008646,0.4192451105073094
1761140366139745800,6.345745849609375,-1.1601537859529256,-0.10676789158731699,0.5770332144316286
1761140366149804800,6.3558046875,-1.131392970892787,-0.13579700219482183,0.6940685252722353
1761140366159864600,6.365864501953125,-0.9517781620204449,-0.1722840275928378,0.7723524459794163
1761140366169923800,6.375923828125,-0.700389910313487,-0.1981757169574499,0.7925104870628565
1761140366179984000,6.38598388671875,-0.4434633137017488,-0.1876253891095519,0.7713791439678519
1761140366190042600,6.396042724609375,-0.17485913877785206,-0.1770285917714238,0.666163888650015
1761140366200103000,6.40610302734375,-0.029147184029221535,-0.1655108801960945,0.5748800549857318
1761140366210161700,6.41616162109375,-0.022058102551102635,-0.11125351256877183,0.5216853116212412
1761140366220221700,6.4262216796875,-0.13280980307757853,-0.009461071306467056,0.5197064858289435
1761140366230281000,6.436281005859375,-0.31006781969070435,0.13835866937637328,0.5387440349824726
1761140366240340700,6.4463408203125,-0.4876303722083568,0.2877750316008925,0.5459999974600971
1761140366250399700,6.456399658203125,-0.6185019006997347,0.37363369841128585,0.5692183394296094
1761140366260459800,6.466459716796875,-0.6583136866062879,0.4211179186418652,0.5276456447977572
1761140366270518800,6.476518798828125,-0.6295780059874058,0.4305456722006201,0.4668723924703896
1761140366280578800,6.486578857421875,-0.5064695127129555,0.4309665279611945,0.34630203937143084
1761140366290637800,6.496637939453125,-0.28216625180840493,0.40707361119836566,0.20059483386315405
1761140366300697900,6.50669775390625,-0.01685702677667141,0.36862493033856153,0.06577058569062501
1761140366310756600,6.516756591796875,0.25510288831591604,0.3557563886761665,0.011113222427666186
1761140366320816600,6.526816650390625,0.49885494605600833,0.3353928150832653,0.07532792044579982
1761140366330876000,6.5368759765625,0.6545996345192193,0.31862112850248814,0.16981274210847913
1761140366340935700,6.546935791015625,0.7456108617871999,0.35437282536327835,0.2453893035531044
1761140366350995000,6.556994873046875,0.7924035926222801,0.35824557514339683,0.30838918242137875
1761140366361054700,6.5670546875,0.7347305713325738,0.32535540519356726,0.29470972623489794
1761140366371113700,6.57711376953125,0.6630816316604614,0.30796967836767436,0.19847274540895596
1761140366381173800,6.587173828125,0.5939163254976272,0.23796295294463632,0.09367184304567053
1761140366391233800,6.59723388671875,0.5324789832383394,0.17332126168608664,0.04062116606067866
1761140366401292800,6.607292724609375,0.5561854375183582,0.13433540520966053,-0.04010514282993972
1761140366411352800,6.617352783203125,0.5933703820526599,0.07888093675225973,-0.07938939773105085
1761140366421411800,6.627411865234375,0.6708347300052643,0.048506841276586055,-0.03333763972269371
1761140366431471900,6.637471923828125,0.7733312278836965,-0.001534077699482441,0.0412927999782376
1761140366441530600,6.647530517578125,0.8129945452302694,-0.08735475058704614,0.08306896302662789
1761140366451590700,6.657590576171875,0.7626414915651083,-0.1495572319999337,0.09656977471057325
1761140366461649700,6.667649658203125,0.6902309198707341,-0.16945260355919597,0.14232592903953045
1761140366471709700,6.677709716796875,0.6178320386141538,-0.1637874174043536,0.253076131728664
1761140366481769000,6.68776904296875,0.5008060801237821,-0.1425491068035364,0.3409234516056254
1761140366491828700,6.697828857421875,0.3863829976081848,-0.11997662498950958,0.3295884396534413
1761140366501887700,6.7078876953125,0.24978666172921657,-0.10620119761526584,0.2853750577870756
1761140366511947800,6.71794775390625,0.08055237709581851,-0.11226531995981931,0.25778348743570967
1761140366522006800,6.7280068359375,-0.13762743249237536,-0.07972498636096716,0.1980268648049794
1761140366532066800,6.73806689453125,-0.41470892838239665,-0.026877485531568525,0.05769274890348315
1761140366542125800,6.748125732421875,-0.7015466791331768,0.0060471712097525596,-0.011115085591189563
1761140366552185900,6.758185791015625,-0.9217162012338638,0.016957272280752656,-0.04633077587913721
1761140366562244600,6.76824462890625,-1.0153244592577217,0.04094926550388336,-0.03784976511858403
1761140366572304600,6.7783046875,-1.0040998854100704,0.0856397633627057,0.03544913371764123
1761140366582364000,6.788364013671875,-0.9435165296316146,0.08377689210027456,0.08601583013348281
1761140366592423700,6.798423583984375,-0.8474304833173751,0.08808014225214719,0.0957154959687963
1761140366602482700,6.808482666015625,-0.7492348975032568,0.053281508332490915,0.06062117617134936
1761140366612543000,6.81854296875,-0.6127952134907245,0.02991729161888361,-0.02084668093472719
1761140366622601700,6.828601806640625,-0.555018147304654,-0.04707213229835033,-0.15289680648511275
1761140366632661800,6.838661865234375,-0.42544075027704237,-0.09988047016113996,-0.30895138288140295
1761140366642720800,6.848720703125,-0.28620763615369793,-0.12078384971916675,-0.4464805426310748
1761140366652780800,6.85878076171875,-0.19036767355501652,-0.12197832020074129,-0.5247621252506971
1761140366662840800,6.8688408203125,-0.12685235597789288,-0.1721402352079749,-0.5589688942244276
1761140366672899800,6.87889990234375,-0.1320142687857151,-0.26007366246581076,-0.6164324009492993
1761140366682960000,6.8889599609375,-0.07334814480543136,-0.2518169985130429,-0.6135024849772452
1761140366693018600,6.8990185546875,0.059552259165048596,-0.29449907915890217,-0.5739983037151396
1761140366703078700,6.90907861328125,0.2803770303040743,-0.3604623744100332,-0.5141438102005049
1761140366713138000,6.919137939453125,0.5220055200189352,-0.42042087628841396,-0.46564306987114246
1761140366723197700,6.92919775390625,0.678740973085165,-0.38694735349267717,-0.3502015310280025
1761140366733256700,6.939256591796875,0.7994026577293872,-0.4476359232112765,-0.3439962466470897
1761140366743317000,6.94931689453125,0.8159072178065776,-0.4726046525120735,-0.45762401406653225
1761140366753375700,6.959375732421875,0.6931786637604236,-0.48443712912499903,-0.48485049569886174
1761140366763435800,6.969435791015625,0.3851134160637855,-0.4552028513342142,-0.5181481870036572
1761140366773495000,6.9794951171875,0.0007598784565925597,-0.42532296911627054,-0.6347421107523142
1761140366783554800,6.989554931640625,-0.3220464267760515,-0.38414457103163,-0.6987567561537027
1761140366793613800,6.99961376953125,-0.6082803664147853,-0.36026012983620165,-0.6458687771834433
1761140366803673900,7.009673828125,-0.9506751692146063,-0.14460720837712288,-0.7540161404304206
1761140366813732900,7.01973291015625,-1.2719605484902858,0.13950608584582805,-0.9135103906854987
1761140366823793000,7.02979296875,-1.5111924984574316,0.32192835335433484,-1.0217254123412072
1761140366833852000,7.039851806640625,-1.6464859350442886,0.41812955048084255,-0.9937239642810076
1761140366843912000,7.049911865234375,-1.5906711088418959,0.43717239686399695,-0.9767249717503785
1761140366853970700,7.059970703125,-1.3473036665052174,0.45948535095900295,-0.895932063896954
1761140366864030700,7.07003076171875,-0.8970195668727159,0.3634051498636603,-0.7708617690302431
1761140366874090000,7.080090087890625,-0.30161914029717446,0.21549685411453245,-0.5248052337400615
1761140366884149800,7.090149658203125,0.1677595359057188,0.09780717101842164,-0.23272128943148998
1761140366894209000,7.100208984375,0.4966951376736164,0.037569559937715526,-0.20313728488758206
1761140366904268800,7.110268798828125,0.7674497686296701,0.00014437690675258636,-0.1899517496978864
1761140366914327800,7.120327880859375,1.0150719458013773,-0.0385576941922307,-0.15397537723574786
1761140366924387800,7.130387939453125,1.2296949396908283,-0.12699351801425218,-0.04022354504521936
1761140366934446800,7.14044677734375,1.3962351629346608,-0.2108586729198694,0.0768946583058685
1761140366944507000,7.1505068359375,1.5314929436862468,-0.224751881454885,0.1753299711599946
1761140366954567000,7.16056689453125,1.6461258695602417,-0.2041097831815481,0.3358660586182028
1761140366964626000,7.1706259765625,1.661554324838519,-0.20236966151595115,0.5045676246143878
1761140366974686000,7.18068603515625,1.5940297716200351,-0.18837065451890228,0.6859168560639023
1761140366984744700,7.19074462890625,1.4311001400887966,-0.26444471715688705,0.8605139829047024
1761140366994804700,7.2008046875,1.2807131792664528,-0.415808706317842,0.911672288538143
1761140367004863700,7.21086376953125,1.0560217958271503,-0.4835787587299943,0.9096920745063573
1761140367014923800,7.220923828125,0.6935761386454105,-0.5332698413550854,0.828428626531735
1761140367024983000,7.230983154296875,0.5025274970889091,-0.4401180949270725,0.6690558837644756
1761140367035042800,7.241042724609375,0.37262861302196976,-0.31955431769937276,0.5726205125559121
1761140367045101800,7.251101806640625,0.16729776361286638,-0.3820151577875018,0.5214144953232258
1761140367055161900,7.261161865234375,-0.11548048261404037,-0.4705649633780122,0.517845222001709
1761140367065220900,7.271220947265625,-0.5141285030335188,-0.5188999552190303,0.5123724531464279
1761140367075281000,7.281281005859375,-0.8503817343384027,-0.5260580102801322,0.4345118724178523
1761140367085340000,7.29133984375,-1.0970973180592059,-0.36225276495814324,0.40707346506789327
1761140367095400000,7.30139990234375,-1.2685598001360892,-0.11915537173449993,0.42053909584060306
1761140367105458700,7.311458740234375,-1.249809506958723,0.1491211786702275,0.4967770803360268
1761140367115518700,7.321518798828125,-1.1447633245974778,0.3884726633638143,0.44642322295326736
1761140367125578000,7.331577880859375,-1.0626549502313136,0.4936155840978026,0.3010567389077507
1761140367135637800,7.3416376953125,-0.9411837027698755,0.5008575180500745,0.24146367280827835
1761140367145696800,7.35169677734375,-0.8164122447192669,0.4139247922673821,0.25428826573109253
1761140367155757000,7.361757080078125,-0.5748796165943145,0.35243601208180186,0.1985494273743592
1761140367165815800,7.37181591796875,-0.2077005011498928,0.2771300112068653,0.11545297355260699
1761140367175875800,7.381875732421875,0.06024082595109939,0.14361790507882832,0.13016769107095896
1761140367185934800,7.391934814453125,0.23969606034755706,0.08184826212525367,0.07048216091506183
1761140367195995000,7.401994873046875,0.3135930712074041,-0.008780980087816715,0.010189166385307907
1761140367206054000,7.412053955078125,0.26392566171884535,-0.05865326449871063,-0.023221885633468626
1761140367216114000,7.422114013671875,0.13122341066896914,-0.05184738387614488,-0.030975550233852116
1761140367226173000,7.4321728515625,0.015146715727448462,-0.037627135343849656,-0.09906118053435348
1761140367236232700,7.442232666015625,-0.02328618304133415,-0.009800678524374962,-0.21467812161017208
1761140367246292000,7.4522919921875,-0.16787527123987675,-0.006742752258479595,-0.2636631017925218
1761140367256352000,7.46235205078125,-0.3926169235616922,0.08993804507851601,-0.31300982795935123
1761140367266410800,7.47241064453125,-0.6725766052365303,0.23250147266834972,-0.30514103081300853
1761140367276470800,7.482470703125,-0.8940607170671224,0.38330344403237104,-0.35857045971620827
1761140367286531000,7.492531005859375,-1.122384904050827,0.5315273816019296,-0.46008510695043947
1761140367296589800,7.50258984375,-1.3126157994836567,0.6177770935565233,-0.48589342888053505
1761140367306649900,7.51264990234375,-1.424239606669545,0.5965533960029482,-0.45952937276381994
1761140367316708900,7.522708984375,-1.4360755904138087,0.5240010777503251,-0.5075599382981658
1761140367326769000,7.532768798828125,-1.4388696050465106,0.3765983934357762,-0.7158914308279752
1761140367336827600,7.54282763671875,-1.4433885437756775,0.23961101241260765,-0.9374496308080852
1761140367346888000,7.552887939453125,-1.403493755760789,0.2876791700109839,-1.0906043758433313
1761140367356947000,7.562947021484375,-1.380859899148345,0.34010990673303604,-1.1372987608704714
1761140367367006700,7.5730068359375,-1.2228951965481043,0.4860869421586394,-1.0756799976296723
1761140367377066000,7.58306591796875,-0.9036901306778192,0.627677140802145,-0.9849094472497701
1761140367387126000,7.5931259765625,-0.36304420759677886,0.6889391264945268,-0.8473571258202195
1761140367397184800,7.603184814453125,0.2728507264524698,0.6756067667126655,-0.6937862742647528
1761140367407244800,7.613244873046875,0.8526859196275473,0.6752943397626281,-0.613443813592568
1761140367417303800,7.6233037109375,1.4061013079106808,0.6568453676193953,-0.5873201055703684
1761140367427363800,7.63336376953125,1.9428952317386865,0.48582390730828046,-0.4340130925828591
1761140367437422800,7.6434228515625,2.379257189002633,0.21465514259338378,-0.2043966738315299
1761140367447483000,7.65348291015625,2.6661650823801755,-0.10281506230831146,-0.08363353810682893
1761140367457542000,7.6635419921875,2.7305817327111956,-0.3570604570120573,-0.06742737645432352
1761140367467601700,7.6736015625,2.6698575071573254,-0.4529229237034917,-0.19212270052880048
1761140367477661000,7.683660888671875,2.4502643236398693,-0.4259326254472136,-0.38199415153209115
1761140367487721000,7.693720947265625,1.9888836604535578,-0.30447482198923825,-0.5038651023682207
1761140367497780000,7.703780029296875,1.4433967270821333,-0.17009762346446514,-0.5157102192670107
1761140367507840000,7.713840087890625,0.8592810801088809,-0.11634791309833525,-0.4390350489307195
1761140367517898800,7.723898681640625,0.39955461387038227,-0.10898849024623632,-0.3140866268780082
1761140367527958800,7.733958740234375,0.05245908603370189,-0.1520332667246461,-0.0854979802718386
1761140367538017800,7.744017822265625,-0.2348889523267746,-0.13979571644216776,0.1339532374916598
1761140367548077800,7.754077880859375,-0.4713835862845182,-0.019637012884020803,0.34031266276352107
1761140367558136800,7.76413671875,-0.7305255208581686,0.08153437387049198,0.492446394187957
1761140367568196900,7.77419677734375,-0.8969125993669033,0.12359452322572469,0.5790888317871838
1761140367578256000,7.784255859375,-0.9635901803672313,0.14297668456584214,0.6736177848525345
1761140367588316000,7.79431591796875,-0.8703466640025377,0.14372662615031004,0.7138048338122666
1761140367598375000,7.804375,-0.6699731447398662,0.09682458972185849,0.746904627924785
1761140367608435000,7.81443505859375,-0.4572732278674841,0.02749561742991209,0.7983851512499153
1761140367618493700,7.82449365234375,-0.3002969517827034,0.019209142860770224,0.8321547343827783
1761140367628554000,7.834553955078125,-0.22407705093324184,0.032196050205826755,0.7522228272728622
1761140367638612700,7.84461279296875,-0.2927975359380245,0.03337766120582819,0.6510892883107066
1761140367648672800,7.8546728515625,-0.45141339592337604,0.08353314647227525,0.4221580753445625
1761140367658732000,7.86473193359375,-0.5966758533388375,0.14807634579241274,0.20829707880355416
1761140367668791800,7.874791748046875,-0.6449222901135683,0.17715630980432032,0.08174458255507051
1761140367678850800,7.884850830078125,-0.6306751535743474,0.17417670947164296,0.09683080026693641
1761140367688910800,7.894910888671875,-0.6376718805938959,0.12900018166154623,0.07601122653484343
1761140367698971000,7.904970947265625,-0.6370049411177635,0.016497253553569315,-0.011367781710624695
1761140367709030000,7.91502978515625,-0.640724838423729,-0.09811433727145194,-0.16007621486149728
1761140367719089700,7.925089599609375,-0.5826578493803739,-0.1718392064347863,-0.2315905683685094
1761140367729149000,7.93514892578125,-0.344638197812438,-0.07565057652890682,-0.18817812762148678
1761140367739209000,7.945208984375,0.03423193994760513,0.002874386392533779,-0.08578713594414293
1761140367749267700,7.955267822265625,0.3706768944323063,0.02652735691964626,0.07612265102006495
1761140367759328000,7.965327880859375,0.6414946537524462,0.016861995212733745,0.13923318718858063
1761140367769386800,7.97538671875,0.7843623249858618,0.021026129154860972,0.12869118877761065
1761140367779446800,7.98544677734375,0.8027572288542986,-0.00952536871433258,0.06320325595326722
1761140367789506000,7.995506103515625,0.7874059304654598,-0.01391162097454071,0.029843641860783098
1761140367799565800,8.00556591796875,0.8131459363996982,-0.05013590378314257,0.00813515646494925
1761140367809624800,8.015624755859376,0.850606775265932,-0.09602993221282959,-0.035592049319669604
1761140367819684900,8.025684814453125,0.9206739987045526,-0.1538514220625162,0.02530767893157899
1761140367829743900,8.035743896484375,0.9217331523686647,-0.19715514173805712,0.07702661412246525
1761140367839804000,8.045803955078124,0.909348887091875,-0.18929858301877975,0.11937222935557365
1761140367849863000,8.05586279296875,0.9257610927104949,-0.1514183496966958,0.15092859341837464
1761140367859923000,8.0659228515625,0.9336351870864629,-0.14282061722129583,0.21201419963054358
1761140367869981700,8.075981689453124,0.8447235624462366,-0.13954203394204379,0.2754384779233485
1761140367880041700,8.086041748046876,0.6867986073344946,-0.14130465970039366,0.3306747735854238
1761140367890101000,8.09610107421875,0.39231940191984177,-0.1161462530463934,0.40699645430892706
1761140367900160800,8.106160888671875,0.014471592944860457,-0.011381225714087485,0.46856816353760655
1761140367910220000,8.116219970703124,-0.383777199023962,0.19582009374201298,0.469649967424944
1761140367920279800,8.12627978515625,-0.6059136372834444,0.37205081313401456,0.4127095712587237
1761140367930338800,8.1363388671875,-0.6995242333948611,0.4181128916069865,0.4241084787599742
1761140367940398800,8.14639892578125,-0.7630529949754477,0.4705030040577054,0.4087940052501857
1761140367950457900,8.156457763671876,-0.7567360669136047,0.5731225437939167,0.3840391378957778
1761140367960518000,8.166517822265625,-0.6589636749476194,0.6240630419582128,0.34498971466384826
1761140367970576600,8.17657666015625,-0.47961833066642284,0.5567568076655268,0.30780440480336546
1761140367980637000,8.186636962890624,-0.2541618080735206,0.4462225492820143,0.2611194451916963
1761140367990696000,8.196696044921875,0.025377017840743064,0.3217249397367239,0.25281346220448614
1761140368000755700,8.206755615234375,0.22200316726863384,0.09476005840748548,0.257302224991098
1761140368010815000,8.21681494140625,0.1372071612536907,-0.14736936656683683,0.26267493100538847
1761140368020874800,8.226874755859376,0.028083938711881636,-0.25442367388010023,0.12363726638890803
1761140368030933800,8.236933837890625,0.15593231998980045,-0.2873942155897617,-0.005559679953753948
1761140368040994000,8.246994140625,0.46064650369286536,-0.3856061680167913,-0.04317768214307725
1761140368051052800,8.257052734375,0.7874959468364715,-0.5015983995452523,-0.029500673642009496
1761140368061112800,8.26711279296875,1.0211807840704916,-0.5883043308347463,-0.026335195348411798
1761140368071171800,8.277171875,1.064535941672325,-0.645577539151907,-0.07461326937042176
1761140368081232000,8.28723193359375,1.1332254470169543,-0.6779162126988172,-0.12831709476821124
1761140368091291000,8.297290771484375,1.2452724480509758,-0.6014490590900182,-0.15704714936390518
1761140368101351000,8.307350830078125,1.1733078665584324,-0.43558541993349786,-0.12400007181931286
1761140368111410000,8.317409912109374,0.7561474533706903,-0.10517390039414166,-0.1396198849512264
1761140368121469700,8.3274697265625,0.02901566660404205,0.2861848398000002,-0.27203009425196795
1761140368131529000,8.337529052734375,-0.6787532480448484,0.5218900769457221,-0.2856961795002222
1761140368141589000,8.347589111328125,-1.136639054852724,0.7447893162712454,-0.34043683713246137
1761140368151648800,8.357648681640624,-1.4232032493591307,0.8674035962879657,-0.3816251720892265
1761140368161707800,8.367707763671875,-1.5863164207637308,0.8443941843613981,-0.3430496134467423
1761140368171768000,8.37776806640625,-1.5041338121175765,0.794031778346002,-0.10619089541696011
1761140368181826800,8.387826904296874,-1.047885251122713,0.5979015957415104,-0.049039158055000004
1761140368191886800,8.397886962890626,-0.39943244879543777,0.2891203087300062,-0.08133527110181749
1761140368201945900,8.40794580078125,0.1058674356162548,-0.017003449510037898,-0.13069829081632195
1761140368212006000,8.418005859375,0.336499315020442,-0.17845687100887297,-0.17057587196808308
1761140368222065000,8.42806494140625,0.42029111242890355,-0.20180530563145874,-0.2089414045890793
1761140368232125000,8.438125,0.4273427845060825,-0.16738339606970548,-0.12142510676477104
1761140368242184000,8.448183837890625,0.3766483700573444,-0.06745645641833543,0.08492781570106744
1761140368252243700,8.45824365234375,0.30857670435011386,-0.021191548849642274,0.27716891844514757
1761140368262303000,8.468302978515625,0.2137865430653095,0.020826807190477848,0.3714478788048029
1761140368272363000,8.478363037109375,0.14770166726112366,0.005457096362113952,0.36230420288443566
1761140368282421800,8.488421875,0.0781388862133026,-0.07596767965406179,0.25892734197489914
1761140368292481800,8.498481689453126,0.09270341813862323,-0.1799482786104083,0.07215316286720334
1761140368302540800,8.508540771484375,0.24508593669235704,-0.27946166902482505,-0.1702297254115343
1761140368312600800,8.518600830078125,0.4010451446890831,-0.467778839790821,-0.3909507804477587
1761140368322660000,8.52866015625,0.5156652110815048,-0.6067763915926218,-0.5610448967808858
1761140368332719900,8.538719970703125,0.5839788688510656,-0.7632379961535334,-0.6638678866673261
1761140368342779000,8.54877880859375,0.636091917926073,-0.8427069619268178,-0.6697622784681618
1761140368352838700,8.558838623046874,0.8170593104511499,-0.6949930197060108,-0.6352867390230298
1761140368362898000,8.56889794921875,0.9657955814570188,-0.37976270268559453,-0.4828782092452049
1761140368372958000,8.5789580078125,0.9950286902040243,-0.02841974653750658,-0.2273765308700502
1761140368383016700,8.5890166015625,0.8733359089463949,0.25080314529538156,-0.1582408161278814
1761140368393077000,8.599076904296876,0.5145920288920403,0.42315614647120237,-0.14397965106330812
1761140368403135700,8.6091357421875,0.1170388179719448,0.45418256837576626,-0.1725041000843048
1761140368413195800,8.61919580078125,-0.14533844526112077,0.39523148997426033,-0.26101459657773374
1761140368423255000,8.629255126953124,-0.26833471033275125,0.3502995845749974,-0.31778175506889816
1761140368433314800,8.639314697265625,-0.28835867670774457,0.33304537517428395,-0.3399715942408889
1761140368443373800,8.649373779296875,-0.3348544704228639,0.3168833449244499,-0.292131254049018
1761140368453433900,8.659433837890624,-0.47853228899538514,0.3693026834696531,-0.24729506410919128
1761140368463492900,8.669492919921876,-0.628372721850872,0.46114130147248505,-0.26505305831357834
1761140368473553000,8.679552978515625,-0.7620850267261267,0.5555661365762352,-0.24033523503392934
1761140368483612000,8.68961181640625,-0.9080945031166077,0.5210574255138636,-0.13193038989454506
1761140368493672000,8.699671875,-1.015531380006671,0.46208296623677014,0.03933649654500186
1761140368503730700,8.709730712890625,-1.0449585500210523,0.41889030572026964,0.1855184799581766
1761140368513790700,8.719790771484375,-0.9396844041228294,0.32512422678619624,0.3174305304784328
1761140368523850000,8.72985009765625,-0.7195353402882814,0.20968553748726843,0.3656360507208854
1761140368533909800,8.73990966796875,-0.37716450288593767,0.07246931614428759,0.3363013082303107
1761140368543969000,8.749968994140625,0.03531564353108406,-0.11699439430832863,0.2204150212943554
1761140368554028800,8.76002880859375,0.37203240069448945,-0.30885552129149435,0.06302987214773893
1761140368564087800,8.770087890625,0.6158318047076463,-0.44297611470669507,-0.05538593326583505
1761140368574147800,8.78014794921875,0.8008072638303041,-0.5023951028808951,-0.1117980677742511
1761140368584206800,8.790206787109375,0.8831377565145492,-0.546793632055819,-0.23081256973333655
1761140368594267000,8.800266845703124,0.9365554584473371,-0.5773077205240726,-0.38684389311820266
1761140368604326000,8.810325927734375,0.9281178849697113,-0.5319970449402928,-0.4821829204574227
1761140368614386000,8.820385986328125,0.8274638000875711,-0.4095803333222866,-0.5101772081244736
1761140368624445000,8.83044482421875,0.6004501111805438,-0.17997896600961685,-0.5283849188577383
1761140368634504700,8.840504638671876,0.3847404910981655,0.11104951442927122,-0.4513886998735368
1761140368644564000,8.85056396484375,0.30105215406417846,0.28575989238619803,-0.28272373956069347
1761140368654623700,8.860623779296875,0.26534137373566624,0.33656799634248014,-0.03347396118715405
1761140368664682800,8.870682861328126,0.18105565533041953,0.4422828717455268,0.09391169794984161
1761140368674743000,8.880742919921875,0.20849194378852842,0.5534478292480111,0.08148848890215157
1761140368684801800,8.8908017578125,0.15538286941349505,0.5720619288250803,0.20868973138295113
1761140368694861800,8.90086181640625,-0.05803016416430473,0.30374767675846814,0.2504161187391728
1761140368704920800,8.9109208984375,-0.4402151255607605,-0.1454027426689863,0.5141339829262346
1761140368714980900,8.92098095703125,-0.7360492527157068,-0.30074674137681723,0.4762170708555728
1761140368725039900,8.931039794921874,-0.934047275018692,-0.22179800008535383,0.1963691059269011
1761140368735100000,8.941099853515626,-1.0530407341897488,-0.15290332755744457,-0.08174472868554293
1761140368745159000,8.951158935546875,-1.018265188884735,-0.07011018579751253,-0.21123342451639474
1761140368755220000,8.961219970703125,-0.8125210824996233,-0.06283785670697689,-0.22094613249637185
1761140368765278700,8.97127880859375,-0.44536943958401676,-0.034840719495713705,-0.194726672482118
1761140368775339000,8.981339111328126,-0.13514496802687645,-0.023441373603045938,-0.028734657705575227
1761140368785397800,8.991397705078125,0.1489063668757677,-0.04179097702503204,0.19619316483810542
1761140368795457800,9.001457763671874,0.3535919041186571,0.027295418682694434,0.4092534394554794
1761140368805517000,9.01151708984375,0.4238344841241836,0.018205811037123203,0.6006213760942221
1761140368815576800,9.021576904296875,0.5599351454406977,-0.04250584729611873,0.7077559821020811
1761140368825636900,9.031636962890625,0.6165583654165268,-0.16238134999871254,0.7670140075609088
1761140368835695600,9.041695556640626,0.6760346367359161,-0.2648909996196627,0.7533209977731108
1761140368845756000,9.051755859375,0.7140694760978221,-0.21881576940417288,0.7502517463956028
1761140368855815000,9.06181494140625,0.5895476088941097,-0.11928572011590004,0.7620566043492406
1761140368865874700,9.071874755859374,0.33744682500362394,0.010281447778642178,0.7548249725952744
1761140368875934000,9.081933837890626,-0.021625556352734564,0.14116934288293123,0.7163957270883023
1761140368885994000,9.091993896484375,-0.2757704132914543,0.2645931857168674,0.7120137856770307
1761140368896052700,9.102052734375,-0.5161228917211294,0.3616308336675167,0.7097550469648093
1761140368906113000,9.112113037109374,-0.6896873145133257,0.4098112194687128,0.6505998973585665
1761140368916171800,9.122171875,-0.7206184593498707,0.4230661301001906,0.5619149941463023
1761140368926231800,9.132231689453125,-0.6961141326904297,0.38727848514318464,0.44879400720521806
1761140368936290800,9.142290771484374,-0.5551747991710901,0.2560451376020908,0.3002348463319242
1761140368946350800,9.152350830078126,-0.38045419208109377,0.07733312278836965,0.12046031685322522
1761140368956409900,9.162409912109375,-0.26497663207650185,-0.06851794817000627,-0.009650602529197931
1761140368966470000,9.172469970703125,-0.24082827924787997,-0.1299336631193757,-0.1280967300157994
1761140368976529000,9.18252880859375,-0.2298088725835085,-0.14952800590544937,-0.22179281245358287
1761140368986589000,9.1925888671875,-0.19770634588003158,-0.2683843946933746,-0.20305033725649116
1761140368996648000,9.20264794921875,-0.10079261656999587,-0.35891134557574983,-0.1640810665886849
1761140369006708000,9.2127080078125,0.1418213770508766,-0.4250324617370963,-0.19003785707876086
1761140369016766700,9.2227666015625,0.44350656832158564,-0.42219022404849527,-0.24617161303721366
1761140369026826800,9.23282666015625,0.7273626729130744,-0.4020774103462696,-0.3063884005255997
1761140369036885800,9.2428857421875,0.9355629402786493,-0.3754840024530887,-0.36269312913678586
1761140369046945800,9.25294580078125,0.8746890771210193,-0.2978472205430269,-0.3905746771443635
1761140369057005000,9.263005126953125,0.6430278546690941,-0.15342793595343826,-0.4150193095058203
1761140369067064800,9.27306494140625,0.43717502721250057,-0.020271219134330748,-0.4157838641375303
1761140369077123800,9.283123779296876,0.31160569678246974,0.031031974862515924,-0.363224824860692
1761140369087184000,9.293183837890625,0.22773908057212827,-0.010267711514234543,-0.27552506022825834
1761140369097243000,9.303242919921875,0.332595877841115,-0.01726560757756233,-0.2663122645944357
1761140369107303000,9.313302978515624,0.6811521258801222,-0.03866524621993303,-0.27058278152048587
1761140369117361700,9.323361572265625,1.039024483796954,-0.1506777604624629,-0.2427997254513204
1761140369127422000,9.333421875,1.3494798415005207,-0.30461189237236974,-0.2960891248293221
1761140369137480700,9.343480712890624,1.5256173296511173,-0.30993250287324187,-0.4253671735841781
1761140369147540700,9.353540771484376,1.5953209804743527,-0.284687586979568,-0.41998116969689725
1761140369157600000,9.36360009765625,1.5824007086247205,-0.22074410711824893,-0.3314179201029241
1761140369167659800,9.37365966796875,1.3311802147001028,-0.15118220285326242,-0.16987682032063603
1761140369177718800,9.38371875,0.9259779503315687,-0.04146510607153177,0.04039521181769669
1761140369187779000,9.393779052734375,0.524536499801278,0.04882072953134775,0.10871668756753206
1761140369197837800,9.403837890625,0.20346388649344443,0.037003742748498915,0.16766637772954998
1761140369207897900,9.41389794921875,-0.0710240857720375,-0.049308805309236044,0.2155429582785815
1761140369217956900,9.423956787109375,-0.34102117635905743,-0.12404869673401117,0.1843464405041188
1761140369228017000,9.434016845703125,-0.6078846450954676,-0.10534282722026109,0.07524857159927487
1761140369238076000,9.444075927734374,-0.848620569884777,-0.05702654007971286,-0.003445829604938626
1761140369248135700,9.4541357421875,-1.0807108314037321,-0.03715425713509321,0.01088357839025557
1761140369258195000,9.46419482421875,-1.2117524557650088,-0.014485329209268092,0.09396532783322036
1761140369268254700,9.474254638671875,-1.2936848890423773,0.001869301003217697,0.147459529068321
1761140369278314000,9.48431396484375,-1.3705097700476645,0.030471710631251335,0.2435463791001588
1761140369288374000,9.4943740234375,-1.4244757535129784,0.12602175037264823,0.4083781179256737
1761140369298432800,9.504432861328125,-1.3760212269455194,0.1577797014221549,0.5411637364100664
1761140369308492800,9.514492919921874,-1.243595454749465,0.13969371737241745,0.49782216894216835
1761140369318551800,9.5245517578125,-1.0341413879305124,0.1043774893194437,0.3186263891994953
1761140369328611800,9.53461181640625,-0.7899146984159946,0.02428396190702915,0.16956300513111053
1761140369338670800,9.5446708984375,-0.5469792177557945,-0.05447217942178249,0.06063304013907909
1761140369348731000,9.55473095703125,-0.2820101844638586,-0.10008242247402667,-0.13513349678479133
1761140369358790000,9.564789794921875,0.0010106383472681046,-0.12465221558511257,-0.18795783593431115
1761140369368849700,9.574849609375,0.24682430479228495,-0.08759703491032123,-0.09389021677039563
1761140369378909000,9.584908935546874,0.3471270920187235,0.03982464538812637,0.1624514195602387
1761140369388969000,9.594968994140626,0.35804186926484105,0.1476370775923133,0.4037821684375405
1761140369399027700,9.60502783203125,0.3136901018410921,0.130735042630136,0.49218321320712566
1761140369409088000,9.615087890625,0.28699615618288515,0.14619915374368428,0.5169412223666906
1761140369419146800,9.625146728515626,0.32107261330783365,0.12476473604887724,0.4903289636425674
1761140369429206800,9.635206787109375,0.4783563479065895,0.06564268499463796,0.4142953791454434
1761140369439266000,9.64526611328125,0.5994090776950121,-0.06064326927214861,0.3443633994590491
1761140369449325800,9.655325927734374,0.6343289999067783,-0.18111995273828504,0.23949535014368592
1761140369459384800,9.665384765625,0.5347223782509565,-0.26022826850563285,0.10759243277795612
1761140369469444900,9.67544482421875,0.30323534332215785,-0.25422785904705525,-0.05135083253085613
1761140369479504000,9.68550390625,0.05580839646160602,-0.18405396036356686,-0.13149134089015424
1761140369489564000,9.69556396484375,-0.09871873290538788,-0.07992752319574356,-0.1281372812218964
1761140369499623000,9.705622802734375,-0.2171808616787195,-0.047721536117792125,-0.05380487461946904
1761140369509683000,9.715682861328125,-0.34910277600586415,-0.018671967244148255,0.024538813450932503
1761140369519741700,9.72574169921875,-0.42979076218008994,0.03586363280266523,0.0816978938691318
1761140369529801700,9.7358017578125,-0.5030599965304136,0.08592793265432119,0.11718144131302832
1761140369539861000,9.745861083984375,-0.6126408997118473,0.10726531971544026,0.15332798271030187
1761140369549920800,9.755920654296874,-0.7391302675962448,0.1074687333330512,0.16834646894820032
1761140369559980000,9.76597998046875,-0.8557149120599031,0.12843991743028163,0.15319346961043775
1761140369570039800,9.776039794921875,-0.9676923549890518,0.15956044735908506,0.11678666984178125
1761140369580098800,9.786098876953124,-0.9710492642015218,0.17504004830271006,0.12100735627673566
1761140369590158800,9.796158935546876,-0.9212146814525127,0.24022943657189605,0.13504362654425203
1761140369600217900,9.8062177734375,-0.8385369827657938,0.3155643712803721,0.17459741910174487
1761140369610278000,9.81627783203125,-0.6510889960497618,0.3807435304164886,0.2325842555809766
1761140369620337000,9.8263369140625,-0.38922143590450287,0.4351736242622137,0.2833873911011964
1761140369630397000,9.83639697265625,-0.14036299493610857,0.4279842972800135,0.308491510284692
1761140369640456000,9.8464560546875,0.024423662638664245,0.34743162792325016,0.3643617199361324
1761140369650515700,9.856515625,0.11519289784431457,0.23232319349199532,0.35052192208878696
1761140369660575000,9.866574951171875,0.03155249160528183,-0.2863283399239182,0.7030366984952241
1761140369670634800,9.876634765625,-0.2447217795550823,-0.8475228377759456,0.9727945004336536
1761140369680693800,9.88669384765625,-0.5181809932947159,-0.7268801500931382,0.6216155757408589
1761140369690754000,9.896754150390626,-0.8365624678224325,-0.07116875493973493,-0.368346113397181
1761140369700812800,9.906812744140625,-1.0477420432597397,0.14923691400438546,-1.0799750644750892
1761140369710872800,9.916872802734375,-0.9253454976469278,0.0406140422001481,-1.2952718659728766
1761140369720931800,9.926931884765626,-0.4438742325901985,0.09968202497959136,-1.20714408518672
1761140369730991900,9.936991943359375,0.0861824919372797,0.3494996663689613,-0.9357030063364654
1761140369741051000,9.94705078125,0.44016018050312994,0.679867346766591,-0.5003967686705291
1761140369751109000,9.957109130859376,0.5639239228159189,0.8777282986864448,-0.21782087661530822
1761140369761168100,9.967168212890625,0.5032932207643985,1.0218284343242645,-0.09143854930195956
1761140369771228200,9.977228271484375,0.390547131550312,1.061675291544199,0.08367145896442234
1761140369781287200,9.987287109375,0.2793207992494106,0.9190215553224086,0.09101195792034268
1761140369791347000,9.997346923828125,0.278089211627841,0.6655848466530442,-0.008206468135491012
1761140369801406200,10.00740625,0.3315852394938469,0.36287206590026616,-0.11255926140509545
1761140369811466200,10.01746630859375,0.40075931348502636,0.07311345926672219,-0.2658197683697566
1761140369821525000,10.02752490234375,0.41228608514964576,-0.18478607403039932,-0.5118040421413257
1761140369831585300,10.037585205078125,0.3975210622161627,-0.41920331719219683,-0.717939595529437
1761140369841644000,10.04764404296875,0.3334796749383211,-0.6098474696010351,-0.7756992721892892
1761140369851704000,10.0577041015625,0.21542320435643195,-0.7174076806098222,-0.7344728702444583
1761140369861763300,10.067763427734375,0.15664485217332838,-0.6677148444190621,-0.6618762013934553
1761140369871823000,10.077822998046875,0.20988544397354125,-0.507792578010261,-0.5530161598324775
1761140369881882000,10.087882080078124,0.301537891754508,-0.2716556714490056,-0.4535800724379718
1761140369891942100,10.097942138671876,0.3989613241523504,0.009708908587694168,-0.39590361708216365
1761140369902001200,10.108001220703125,0.5667594385027885,0.2563125563666224,-0.5251080160789191
1761140369912061200,10.118061279296874,0.8175093923062086,0.3831444540783763,-0.75536689745225
1761140369922120200,10.1281201171875,1.0715548805236816,0.43266397952884433,-0.8915179737817496
1761140369932180200,10.13818017578125,1.2043132456749677,0.44806174740791316,-0.822954871295765
1761140369942239000,10.148239013671875,1.4379694413363933,0.3912207930281758,-0.6560165155798197
1761140369952299000,10.158299072265624,1.6009610321879386,0.31236411393433805,-0.5172406437046826
1761140369962358300,10.168358154296875,1.662718107920885,0.21854864290058612,-0.3868104292400181
1761140369972418000,10.17841796875,1.5695190152198075,0.12118716982305049,-0.16798793783411384
1761140369982477300,10.188477294921874,1.3012807509988547,0.07899374947696924,-0.06062288407124579
1761140369992537300,10.198537353515626,1.0481716668486594,0.07101414889991282,-0.05105243410617113
1761140370002596000,10.20859619140625,0.8328975155740976,0.022714812894165513,-0.05217033222019672
1761140370012656000,10.21865625,0.7083300556629896,-0.11016425602734088,-0.009846271231770514
1761140370022715100,10.228715087890626,0.6274772343158721,-0.23064503114670515,0.07799801643788815
1761140370032775200,10.238775146484375,0.5709796865463257,-0.2690039878964424,0.19651311750747263
1761140370042834000,10.248833984375,0.47265609043836593,-0.25524609617888927,0.32724026909209786
1761140370052894200,10.258894287109374,0.26606559635698795,-0.17685878816246986,0.3677314886301756
1761140370062953200,10.268953125,-0.00947042365670204,-0.17211714659333227,0.3116743050392717
1761140370073013000,10.279012939453125,-0.23774551080167292,-0.18132979609668254,0.18871786052137612
1761140370083072300,10.289072265625,-0.4670405886441469,-0.23789017996937034,-0.007076879583671689
1761140370093132300,10.29913232421875,-0.793545163872838,-0.32255788342952724,-0.3209210760079324
1761140370103191000,10.30919091796875,-1.0107225184202193,-0.3978101082906127,-0.6711037562049925
1761140370113251300,10.319251220703125,-1.157480767351389,-0.5021861363053322,-0.8994823767896741
1761140370123310000,10.32931005859375,-1.3472089739590882,-0.5470449764683842,-0.9150287593591958
1761140370133370000,10.3393701171875,-1.5717629947543144,-0.39035774645805354,-0.8411025954701006
1761140370143429000,10.34942919921875,-1.7145120080441236,-0.1585728976264596,-0.6733291771695017
1761140370153489200,10.3594892578125,-1.704078292313218,0.04465951819866895,-0.45601394852139054
1761140370163548200,10.369548095703125,-1.5235241567641495,0.18455460336208343,-0.18659575380086899
1761140370173608200,10.379608154296875,-1.1636878052979707,0.21179273889958858,0.03212283883914351
1761140370183667200,10.389667236328124,-0.6594973434329032,0.12812135300040245,0.1792969020295888
1761140370193727200,10.399727294921876,-0.13946926096677778,0.02189882033616304,0.17229374526925384
1761140370203786200,10.4097861328125,0.305784443283081,-0.009595511341094971,0.0855418559461832
1761140370213846300,10.41984619140625,0.5932791966378689,-0.013938508981466292,0.044584918592497705
1761140370223905000,10.429905029296876,0.8182944052040576,-0.05899228719472885,0.06321480026058852
1761140370233965000,10.439965087890625,0.9499415942430496,-0.17671908743083475,0.09249583980254829
1761140370244024000,10.450024169921875,0.9496195226818323,-0.29838761103004213,0.07915821932367981
1761140370254084000,10.460083984375,0.8778180227965116,-0.3780529761582613,0.06609810061194002
1761140370264143000,10.47014306640625,0.8299234681993722,-0.3553217966511845,0.10602525652647017
1761140370274203100,10.480203125,0.860152017724514,-0.3206590640708804,0.16232932755053042
1761140370284262100,10.49026220703125,0.9415560432136059,-0.2983241904050112,0.2763192062806338
1761140370294322200,10.500322265625,1.0090963785231113,-0.29272534748464824,0.3773872057259083
1761140370304381200,10.510381103515625,1.0612205335140228,-0.2560106508105993,0.48601957601085305
1761140370314441200,10.520441162109375,0.965392261353135,-0.2185883903890848,0.6335388724423945
1761140370324500000,10.5305,0.7760381487548351,-0.19151070611029863,0.7395411134194583
1761140370334560300,10.540560302734375,0.4916700029879808,-0.09485708904117346,0.6472199725966901
1761140370344619000,10.550618896484375,0.1875099460363388,-0.09106529554277658,0.5106285320885479
1761140370354679000,10.560678955078124,-0.11823825688958167,-0.142175012794137,0.36887152551077307
1761140370364738300,10.57073828125,-0.444026208281517,-0.2686246331900358,0.22070706304349003
1761140370374798000,10.580798095703125,-0.7532458867102861,-0.3151040602922439,0.0963284037027508
1761140370384857000,10.590857177734375,-0.9821791455030441,-0.3033881957963109,-0.061499959166720505
1761140370394917400,10.60091748046875,-1.1049053614616393,-0.3166086196362972,-0.18920937036536634
1761140370404976000,10.61097607421875,-1.1081932970911264,-0.35586803235709663,-0.2454096887540072
1761140370415036200,10.6210361328125,-0.9814046539992094,-0.3388122681379318,-0.18223536663427947
1761140370425095200,10.63109521484375,-0.8957686900287866,-0.2957417726963758,-0.07591923740245402
1761140370435155200,10.6411552734375,-0.8159358593791722,-0.18851620046943424,-0.08262319202050566
1761140370445214000,10.6512138671875,-0.7056365787953138,-0.020271511395275593,-0.0927025413557887
1761140370455274000,10.66127392578125,-0.5943757597029209,0.08067688025832176,-0.08839329985454678
1761140370465333200,10.671333251953126,-0.5020195475667715,0.07411971369981765,-0.06434957644417881
1761140370475393000,10.68139306640625,-0.2864221556872129,0.06940496013760566,-0.059825888474658126
1761140370485452300,10.691452392578125,-0.004323708418011665,0.07836480392366647,-0.0957641208834946
1761140370495512300,10.70151220703125,0.2480254972755909,0.06608604484796524,-0.12381963721849024
1761140370505571000,10.711571044921875,0.46063189064562315,0.026817864298820493,-0.17014080501906573
1761140370515631000,10.721631103515625,0.6129565415322781,-0.010328209529817103,-0.20495595168210565
1761140370525690000,10.731690185546874,0.7362187640637159,-0.005577507871389388,-0.24433745641261337
1761140370535750100,10.741750244140626,0.8237789740949869,0.0786424518212676,-0.24000856036283075
1761140370545809200,10.75180908203125,0.8689654387772083,0.17295798133164644,-0.21120463681332766
1761140370555869200,10.761869140625,0.8634317700475453,0.3202525290966034,-0.15797924258224666
1761140370565928200,10.77192822265625,0.7463777545064687,0.40913668120801444,-0.020740517146512864
1761140370575988000,10.781988037109375,0.6552654049515724,0.44380379770249123,0.1365070501603186
1761140370586047200,10.792047119140625,0.5980652618706226,0.45326165413856506,0.29637926688231525
1761140370596107300,10.802107177734374,0.52986675491333,0.4731693006575107,0.3110368839185685
1761140370606166000,10.812166015625,0.5345347467243671,0.5392956775158644,0.31556349449753757
1761140370616226300,10.822226318359375,0.5477993019670248,0.5955304826959967,0.2329926902513951
1761140370626285000,10.83228515625,0.4835539165496826,0.5716083398386835,0.3555111086782068
1761140370636345000,10.842344970703126,0.3322697146266699,0.5717389804810286,0.39626857793703674
1761140370646404000,10.852404052734375,0.0490559995919466,0.44184886424243447,0.2663888369619846
1761140370656464100,10.862464111328125,-0.36447862431406974,0.21389584865868091,0.16543175054527817
1761140370666523100,10.872523193359376,-0.6229372527986764,0.11502192519158125,-0.029089681688323616
1761140370676583200,10.882583251953125,-0.7644155155003071,0.08445552201420069,-0.12269932795166968
1761140370686642200,10.89264208984375,-0.732199591550231,0.08277385253757238,0.018551409604400396
1761140370696702200,10.9027021484375,-0.6690934392958879,0.0011079612419009207,0.19549524570181964
1761140370706761200,10.91276123046875,-0.679817077884078,-0.10495148981511593,0.29074016501680017
1761140370716821200,10.9228212890625,-0.6278226867526769,-0.11474924573004246,0.2674295781865716
1761140370726880000,10.9328798828125,-0.4612777873337269,-0.11799071186929941,0.3095753599986434
1761140370736940000,10.94293994140625,-0.31977439019083975,-0.15814035142809152,0.3963933733604848
1761140370746999300,10.952999267578125,-0.4270370795577764,-0.2602192084163427,0.41997722417414185
1761140370757059000,10.96305908203125,-0.5202595531344414,-0.33501989011764527,0.2744618149109185
1761140370767118000,10.9731181640625,-0.5375584784597158,-0.38916561406403777,0.11529080526083707
1761140370777178000,10.98317822265625,-0.44732583434879775,-0.3905260887622833,0.046913288474828
1761140370787236900,10.99323681640625,-0.0831149210602045,-0.38977819300442934,-0.1091071481898427
1761140370797297000,11.003296875,0.33741993699669837,-0.4922442957445979,-0.14304755784496664
1761140370807356200,11.013356201171876,0.5481804102391005,-0.6500555613487958,-0.08832432627156377
1761140370817416000,11.023416015625,0.5162117390483617,-0.7061518348410725,-0.03998524277731776
1761140370827475000,11.033474853515624,0.34347266116440295,-0.6595432284012437,0.011263152292370796
1761140370837534000,11.043533935546876,0.19373335059583185,-0.6255383752077818,0.013979863905161618
1761140370847594000,11.053593994140625,0.01316343295574188,-0.537582443857193,0.148595255099982
1761140370857653000,11.063653076171875,-0.2179658745765686,-0.38699966820180415,0.3169980573453009
1761140370867713000,11.073713134765624,-0.3308428966939449,-0.193673437102139,0.2987200578548014
1761140370877772000,11.08377197265625,-0.30881226667165756,-0.03439648285955191,0.18556494944840668
1761140370887831800,11.093831787109375,-0.15952712961137294,-0.000374094009399414,-0.045665480370819564
1761140370897891000,11.10389111328125,0.019366963770985603,-0.08551818280965089,-0.23798005020990967
1761140370907951000,11.113951171875,0.12895663478076458,-0.15016630380898713,-0.33297625546082854
1761140370918010000,11.124010009765625,0.15694588094651699,-0.10132102435827255,-0.35781712059825654
1761140370928070100,11.134070068359375,0.0798772543132305,-0.004252689008414745,-0.2637374456703663
1761140370938129000,11.14412890625,-0.08149988707900047,0.10570932244509458,-0.0827868581496179
1761140370948189000,11.15418896484375,-0.2215039855748415,0.2864949286624789,0.060140872707962985
1761140370958248200,11.164248291015625,-0.34557518640160556,0.39360418103337286,0.08748173796758055
1761140370968308000,11.174307861328124,-0.4068225590467453,0.4508411489933729,0.07828413990288972
1761140370978367000,11.184366943359375,-0.30274376041293144,0.5190101375952363,0.04831701779291033
1761140370988427000,11.194427001953125,-0.1351379537642002,0.5106111425623298,-0.05051102070584893
1761140370998486000,11.204486083984374,0.04127659776210785,0.42065351600050926,-0.1435327110134065
1761140371008546000,11.214546142578126,0.20140636944174764,0.3608364684194326,-0.21995894808992741
1761140371018605000,11.22460498046875,0.2869511479973793,0.26722821039557454,-0.3601384031526744
1761140371028665000,11.2346650390625,0.38276480711102484,0.25088351705521345,-0.45624753808155655
1761140371038723800,11.244723876953126,0.306791574499011,0.2612815769508481,-0.4609953171305358
1761140371048784100,11.2547841796875,0.10647533838152885,0.25431027663350103,-0.4138517270311713
1761140371058843100,11.264843017578125,-0.027374329137802123,0.34437662426680327,-0.35850466447100043
1761140371068903000,11.27490283203125,-0.008315992924571037,0.4412964910566807,-0.2171747241988778
1761140371078962200,11.284962158203125,0.0959071826159954,0.4740326394885778,-0.16270502899512648
1761140371089022000,11.29502197265625,0.3289706730812788,0.5849389460548758,-0.1577015216194093
1761140371099081000,11.3050810546875,0.6778489926815032,0.7436679110258817,-0.2027940244078636
1761140371109141000,11.31514111328125,1.1906056228399275,0.5916118479475378,-0.21682912563160062
1761140371119200000,11.325199951171875,1.4186083227843045,0.07726765633672475,0.010013590622693299
1761140371129260000,11.335260009765625,1.2561018851011991,-0.2183297394528985,0.030406974831968542
1761140371139319000,11.345319091796876,0.9037561816513537,-0.07048252624124288,-0.27422596032842994
1761140371149379000,11.355379150390625,0.45932840683162207,0.23721505718678235,-0.49602688302323217
1761140371159438000,11.36543798828125,0.16473463512659073,0.3793655200615525,-0.35855683304965497
