time,seconds_elapsed,z,y,x
1761140359862589200,0.068589111328125,0.05560346692800522,0.24734972417354584,-0.09356832504272461
1761140359872649200,0.078649169921875,-0.009874074719846249,0.15483738481998444,-0.04950232803821564
1761140359882708000,0.0887080078125,-0.06480135768651962,0.08227243274450302,-0.0418018139898777
1761140359892768300,0.098768310546875,-0.10241131484508514,0.007538005243986845,-0.08790220320224762
1761140359902827300,0.1088271484375,-0.13107694685459137,-0.06325674802064896,-0.16347387433052063
1761140359912887000,0.118886962890625,-0.11798592656850815,-0.03998205065727234,-0.2046479433774948
1761140359922947000,0.128947021484375,-0.07243505865335464,0.06518566608428955,-0.2079879194498062
1761140359933006000,0.139006103515625,-0.0319795124232769,0.1352132260799408,-0.21091313660144806
1761140359943066000,0.149066162109375,-0.022928833961486816,0.12709441781044006,-0.22211451828479767
1761140359953125000,0.159125,-0.03300091251730919,0.06591574102640152,-0.23323507606983185
1761140359963185200,0.16918505859375,-0.03931639343500137,0.014127170667052269,-0.22580215334892273
1761140359973244200,0.179244140625,-0.036505162715911865,0.010788632556796074,-0.20001102983951569
1761140359983304200,0.18930419921875,-0.02742822654545307,0.03045859932899475,-0.16951489448547363
1761140359993363200,0.19936328125,-0.007512309588491917,0.046609606593847275,-0.1385606974363327
1761140360003423200,0.20942333984375,0.013870788738131523,0.025059068575501442,-0.11473936587572098
1761140360013483000,0.21948291015625,0.028447333723306656,-0.01857309602200985,-0.10236898064613342
1761140360023542300,0.229542236328125,0.029931137338280678,-0.04289385676383972,-0.10121223330497742
1761140360033602300,0.239602294921875,0.041957441717386246,-0.014045696705579758,-0.09868941456079483
1761140360043661000,0.2496611328125,0.05136258900165558,0.03337704390287399,-0.10566994547843933
1761140360053721000,0.25972119140625,0.06759162247180939,0.09725216776132584,-0.11608929932117462
1761140360063781400,0.269781494140625,0.09828069806098938,0.1626983880996704,-0.11981737613677979
1761140360073840000,0.279840087890625,0.1205066442489624,0.18199725449085236,-0.1162966787815094
1761140360083900200,0.289900146484375,0.12189257889986038,0.15091028809547424,-0.11210955679416656
1761140360093959200,0.299959228515625,0.11392226815223694,0.10038480162620544,-0.10633955150842667
1761140360104019200,0.310019287109375,0.08360320329666138,0.08378954976797104,-0.08460485935211182
1761140360114078000,0.320077880859375,0.045562341809272766,0.07160399109125137,-0.0717063695192337
1761140360124138200,0.33013818359375,0.013077323324978352,0.051080577075481415,-0.06422837823629379
1761140360134197200,0.340197265625,-0.006481996737420559,0.01392282173037529,-0.056655943393707275
1761140360144257000,0.350257080078125,-0.01858622021973133,-0.012290166690945625,-0.04145343601703644
1761140360154317000,0.360317138671875,-0.028434589505195618,-0.05040159821510315,-0.032341696321964264
1761140360164376300,0.370376220703125,-0.021203134208917618,-0.05536365881562233,0.0002460169489495456
1761140360174436000,0.38043603515625,-0.0071874503046274185,-0.03931145742535591,0.04986976087093353
1761140360184495000,0.3904951171875,0.009211726486682892,-0.037336286157369614,0.08824418485164642
1761140360194555100,0.40055517578125,0.02942671626806259,-0.04128442332148552,0.11359161883592606
1761140360204614100,0.4106142578125,0.044427238404750824,-0.04807601496577263,0.10875239223241806
1761140360214674200,0.420674072265625,0.040638357400894165,-0.0383424274623394,0.0761004388332367
1761140360224734000,0.43073388671875,0.0232679545879364,-0.01097770594060421,0.014440231025218964
1761140360234793200,0.440793212890625,0.0057171909138560295,0.04058215767145157,-0.05592314898967743
1761140360244853200,0.450853271484375,0.009984713047742844,0.1125209629535675,-0.10091633349657059
1761140360254912300,0.460912353515625,0.022465884685516357,0.14918071031570435,-0.1125362366437912
1761140360264972300,0.47097216796875,0.031139075756072998,0.1478349268436432,-0.08727362751960754
1761140360275031000,0.481031005859375,0.03889366611838341,0.1084158718585968,-0.04305264353752136
1761140360285091000,0.491091064453125,0.04273287206888199,0.045950405299663544,0.007734740152955055
1761140360295151400,0.5011513671875,0.0452764555811882,-0.003963626455515623,0.046723950654268265
1761140360305210000,0.511210205078125,0.03930138051509857,-0.016037024557590485,0.06151045486330986
1761140360315270100,0.521270263671875,0.033066119998693466,-0.013954699039459229,0.04465344548225403
1761140360325329200,0.5313291015625,0.025988860055804253,-0.00533130019903183,0.006098249461501837
1761140360335389200,0.54138916015625,0.03200094774365425,0.011643687263131142,-0.023087067529559135
1761140360345448200,0.5514482421875,0.04120369255542755,0.0271013043820858,-0.033753685653209686
1761140360355508000,0.561508056640625,0.048087697476148605,0.048868920654058456,-0.02985960803925991
1761140360365567200,0.571567138671875,0.054627418518066406,0.07307939976453781,-0.015231172554194927
1761140360375627000,0.581626953125,0.05057089403271675,0.09316255897283554,-0.002403524238616228
1761140360385687000,0.59168701171875,0.03837278112769127,0.09136535972356796,0.003972225356847048
1761140360395746300,0.601746337890625,0.023543233051896095,0.06748665869235992,-0.0011668767547234893
1761140360405806000,0.61180615234375,0.011053018271923065,0.03418940305709839,-0.0025077511090785265
1761140360415865000,0.621864990234375,-0.006045274902135134,-0.0016024140641093254,0.001406563096679747
1761140360425925400,0.63192529296875,-0.004819633439183235,-0.02834882028400898,0.025472275912761688
1761140360435984100,0.641984130859375,0.00664127990603447,-0.040123987942934036,0.064703568816185
1761140360446044200,0.652044189453125,0.022126201540231705,-0.04131535813212395,0.09727247059345245
1761140360456104000,0.66210400390625,0.032176438719034195,-0.03659091144800186,0.11117816716432571
1761140360466163200,0.6721630859375,0.044019728899002075,-0.018035322427749634,0.10386186838150024
1761140360476223200,0.68222314453125,0.04120796546339989,0.013113807886838913,0.0782848671078682
1761140360486282000,0.692281982421875,0.03448595106601715,0.05124058946967125,0.04503516107797623
1761140360496342300,0.70234228515625,0.03483748808503151,0.09968163073062897,0.01815028488636017
1761140360506401000,0.712401123046875,0.03477776050567627,0.11761598289012909,-0.000018723891116678715
1761140360516461000,0.7224609375,0.03519001975655556,0.10752259939908981,0.004319831728935242
1761140360526521000,0.73252099609375,0.0412907712161541,0.08453135192394257,0.030962564051151276
1761140360536580000,0.742580078125,0.04214431345462799,0.031875330954790115,0.05115997791290283
1761140360546640100,0.75264013671875,0.04337870702147484,-0.021059874445199966,0.07863427698612213
1761140360556699100,0.76269921875,0.05504228547215462,-0.03960666060447693,0.10407572239637375
1761140360566759200,0.77275927734375,0.07076755166053772,-0.03366910293698311,0.12647299468517303
1761140360576818200,0.782818115234375,0.0855446383357048,-0.007481707260012627,0.11472418904304504
1761140360586878000,0.7928779296875,0.10750716924667358,0.03155503422021866,0.06687920540571213
1761140360596938200,0.802938232421875,0.12862816452980042,0.05978747084736824,-0.006351863499730825
1761140360606997200,0.812997314453125,0.1445433348417282,0.0760238990187645,-0.09126487374305725
1761140360617057000,0.82305712890625,0.1464885026216507,0.09912096709012985,-0.15128053724765778
1761140360627116300,0.8331162109375,0.14436648786067963,0.11173723638057709,-0.16284510493278503
1761140360637176000,0.843176025390625,0.1300075203180313,0.08487366139888763,-0.13885162770748138
1761140360647235000,0.853235107421875,0.11070461571216583,0.010057719424366951,-0.09334768354892731
1761140360657295000,0.863295166015625,0.08826881647109985,-0.06033148989081383,-0.03583512455224991
1761140360667354000,0.87335400390625,0.07455412298440933,-0.11244796961545944,0.026535898447036743
1761140360677414100,0.8834140625,0.07333838939666748,-0.12083160132169724,0.07855729013681412
1761140360687474200,0.89347412109375,0.08969106525182724,-0.09702783077955246,0.11431727558374405
1761140360697533200,0.903533203125,0.11365418881177902,-0.05467984452843666,0.12394380569458008
1761140360707593200,0.91359326171875,0.12384917587041855,-0.012859046459197998,0.11540233343839645
1761140360717652000,0.92365185546875,0.12417701631784439,0.019411006942391396,0.09803425520658493
1761140360727712300,0.933712158203125,0.11454500257968903,0.027488041669130325,0.07513216137886047
1761140360737771000,0.94377099609375,0.08779621869325638,0.002721440512686968,0.04378568381071091
1761140360747831300,0.953831298828125,0.04224539175629616,-0.01720186322927475,0.009326226077973843
1761140360757891300,0.963891357421875,0.005396564491093159,-0.031576007604599,-0.01827584020793438
1761140360767950300,0.973950439453125,-0.019908709451556206,-0.028358787298202515,-0.030661381781101227
1761140360778010400,0.98401025390625,-0.031442057341337204,-0.010894041508436203,-0.023383228108286858
1761140360788069400,0.9940693359375,-0.03587736561894417,-0.002852262230589986,-0.014245248399674892
1761140360798129400,1.00412939453125,-0.03279688581824303,-0.009882474318146706,-0.008753810077905655
1761140360808188400,1.0141884765625,-0.030240589752793312,-0.0015520083252340555,-0.018165545538067818
1761140360818248200,1.024248291015625,-0.029604094102978706,0.009875349700450897,-0.042271677404642105
1761140360828307500,1.034307373046875,-0.028233567252755165,0.035239771008491516,-0.07394789159297943
1761140360838367500,1.044367431640625,-0.025359483435750008,0.07426413893699646,-0.09859544783830643
1761140360848427300,1.05442724609375,-0.02575303427875042,0.08559317141771317,-0.12456689774990082
1761140360858486500,1.064486572265625,-0.018823489546775818,0.08661795407533646,-0.12682819366455078
1761140360868546300,1.07454638671875,-0.009084171615540981,0.0795803964138031,-0.11640210449695587
1761140360878605300,1.084605224609375,-0.002333857351914048,0.04358217865228653,-0.10278509557247162
1761140360888665300,1.094665283203125,-0.0004914825549349189,0.005482731852680445,-0.09188184887170792
1761140360898724400,1.104724365234375,0.0033621115144342184,-0.005280966404825449,-0.05998249724507332
1761140360908784400,1.114784423828125,0.014067256823182106,0.00424658739939332,-0.01599600538611412
1761140360918844400,1.124844482421875,0.030726395547389984,0.03480236604809761,0.03469034284353256
1761140360928903400,1.1349033203125,0.03893505781888962,0.0445825569331646,0.07058389484882355
1761140360938963500,1.14496337890625,0.044159647077322006,0.03347131609916687,0.09057331085205078
1761140360949022200,1.155022216796875,0.04425065219402313,0.024184174835681915,0.09544996917247772
1761140360959082200,1.165082275390625,0.045357197523117065,0.03394705802202225,0.09376951307058334
1761140360969141200,1.175141357421875,0.04414248466491699,0.0527191162109375,0.08151961117982864
1761140360979201300,1.185201171875,0.04851459711790085,0.06482531130313873,0.07083074748516083
1761140360989260500,1.195260498046875,0.04816906154155731,0.047865286469459534,0.061550550162792206
1761140360999320300,1.2053203125,0.0387025885283947,0.0024285628460347652,0.061905547976493835
1761140361009380400,1.21538037109375,0.01887531951069832,-0.03560784086585045,0.06870167702436447
1761140361019439400,1.225439453125,0.0012859392445534468,-0.06772076338529587,0.07659181952476501
1761140361029499400,1.23549951171875,-0.013034907169640064,-0.08123943954706192,0.0853956937789917
1761140361039558400,1.245558349609375,-0.02237088419497013,-0.08045566827058792,0.08504389226436615
1761140361049618200,1.2556181640625,-0.0219873059540987,-0.058751847594976425,0.08672303706407547
1761140361059677400,1.265677490234375,-0.016122227534651756,-0.010079114697873592,0.10120663791894913
1761140361069737500,1.275737548828125,-0.011353818699717522,0.0550428107380867,0.1175832748413086
1761140361079796200,1.285796142578125,-0.009086402133107185,0.08874431997537613,0.1289440542459488
1761140361089856500,1.2958564453125,-0.004275007639080286,0.06561944633722305,0.13069340586662292
1761140361099916500,1.30591650390625,-0.013032013550400734,0.02515883557498455,0.1355358362197876
1761140361109975300,1.315975341796875,-0.029204536229372025,-0.017314335331320763,0.13323597609996796
1761140361120035300,1.326035400390625,-0.052549540996551514,-0.056692369282245636,0.10755033046007156
1761140361130094300,1.33609423828125,-0.06733355671167374,-0.0655641108751297,0.08643848448991776
1761140361140154400,1.346154296875,-0.06213320046663284,-0.039497893303632736,0.07706229388713837
1761140361150213000,1.356213134765625,-0.05037751421332359,-0.0005854521878063679,0.07301376014947891
1761140361160273400,1.3662734375,-0.03928837552666664,0.02535027451813221,0.07895287871360779
1761140361170333400,1.37633349609375,-0.033139944076538086,0.03804081305861473,0.09064558893442154
1761140361180392200,1.38639208984375,-0.024895330891013145,0.0363939143717289,0.09771974384784698
1761140361190452200,1.3964521484375,-0.019213540479540825,0.04081827774643898,0.10916151851415634
1761140361200511500,1.406511474609375,0.010008260607719421,0.024660348892211914,0.1161656305193901
1761140361210571300,1.4165712890625,0.0197603777050972,0.018818441778421402,0.12156574428081512
1761140361220630500,1.426630615234375,-0.004319391213357449,0.01374991238117218,0.12050953507423401
1761140361230690300,1.436690185546875,-0.040411438792943954,0.011668059974908829,0.102435402572155
1761140361240749300,1.446749267578125,-0.07141569256782532,-0.010666007176041603,0.068952277302742
1761140361250809300,1.456809326171875,-0.09549247473478317,-0.03033750131726265,0.02598372846841812
1761140361260869400,1.466869384765625,-0.12553027272224426,-0.032597459852695465,-0.026592930778861046
1761140361270928400,1.476928466796875,-0.14224539697170258,-0.029574407264590263,-0.06481394171714783
1761140361280988400,1.486988525390625,-0.14119531214237213,-0.02270212024450302,-0.08453065156936646
1761140361291047400,1.49704736328125,-0.1251101791858673,-0.012154528871178627,-0.0778924822807312
1761140361301107500,1.507107421875,-0.09980295598506927,-0.013747099786996841,-0.06260380893945694
1761140361311166200,1.517166259765625,-0.0776958093047142,-0.03225298970937729,-0.04026903957128525
1761140361321226200,1.527226318359375,-0.05336064472794533,-0.05686725676059723,-0.02498835138976574
1761140361331285200,1.53728515625,-0.028472507372498512,-0.07694827020168304,-0.01716855727136135
1761140361341345300,1.54734521484375,-0.011321750469505787,-0.068603515625,-0.015949362888932228
1761140361351405300,1.5574052734375,-0.005090082064270973,-0.046061884611845016,-0.017875278368592262
1761140361361464300,1.56746435546875,-0.007622482255101204,-0.02291342057287693,-0.01676873490214348
1761140361371524400,1.5775244140625,-0.015966899693012238,-0.006751817185431719,-0.013710934668779373
1761140361381583400,1.587583251953125,-0.025052007287740707,0.009512374177575111,-0.0038274116814136505
1761140361391643400,1.597643310546875,-0.03144194930791855,0.009445580653846264,0.013960935175418854
1761140361401702400,1.607702392578125,-0.03427821770310402,-0.009769393131136894,0.036056648939847946
1761140361411762200,1.61776220703125,-0.03717251494526863,-0.0377923883497715,0.057229675352573395
1761140361421821400,1.627821533203125,-0.03795574977993965,-0.05999303236603737,0.07185415923595428
1761140361431881500,1.637881591796875,-0.03467507287859917,-0.060630228370428085,0.08659915626049042
1761140361441941200,1.647941162109375,-0.026401430368423462,-0.0432770699262619,0.09229272603988647
1761140361452000300,1.658000244140625,-0.014971721917390823,-0.014730410650372505,0.0922483578324318
1761140361462060500,1.668060546875,-0.0019491310231387615,0.005363938398659229,0.08280585706233978
1761140361472119300,1.678119384765625,-0.0008215297712013125,0.008933553472161293,0.058736272156238556
1761140361482179300,1.688179443359375,-0.015467050485312939,-0.011021247133612633,0.0346333347260952
1761140361492238300,1.69823828125,-0.030525758862495422,-0.036266304552555084,0.005940251983702183
1761140361502298400,1.70829833984375,-0.04513825848698616,-0.05530470982193947,-0.009498891420662403
1761140361512357000,1.718357177734375,-0.052568696439266205,-0.05830925703048706,-0.029492946341633797
1761140361522417400,1.72841748046875,-0.04903228580951691,-0.06555625051259995,-0.03468051925301552
1761140361532477400,1.7384775390625,-0.05407464876770973,-0.07086239010095596,-0.03381103649735451
1761140361542536200,1.7485361328125,-0.06009392440319061,-0.05398141220211983,-0.011012781411409378
1761140361552596200,1.75859619140625,-0.05431899055838585,-0.01634843647480011,0.022746063768863678
1761140361562655500,1.768655517578125,-0.04644322395324707,0.007518813479691744,0.0589890219271183
1761140361572715300,1.77871533203125,-0.038714006543159485,0.007533293217420578,0.08339916169643402
1761140361582774500,1.7887744140625,-0.03711317852139473,-0.011207104660570621,0.07872878015041351
1761140361592834300,1.798834228515625,-0.0323498472571373,-0.029972802847623825,0.05494089424610138
1761140361602893300,1.808893310546875,-0.0299543347209692,-0.03723098337650299,0.014454454183578491
1761140361612953300,1.818953369140625,-0.04208271950483322,-0.017300276085734367,-0.04783211275935173
1761140361623013400,1.829013427734375,-0.055645134299993515,0.017860639840364456,-0.1059766411781311
1761140361633072400,1.839072265625,-0.059696849435567856,0.04491294547915459,-0.15702831745147705
1761140361643132400,1.84913232421875,-0.06212698295712471,0.0754317119717598,-0.17612583935260773
1761140361653191400,1.85919140625,-0.056034352630376816,0.08668216317892075,-0.1853848248720169
1761140361663251500,1.86925146484375,-0.03951742500066757,0.05936158820986748,-0.18812282383441925
1761140361673310200,1.879310302734375,-0.016465095803141594,0.037335872650146484,-0.1828400194644928
1761140361683370200,1.889370361328125,0.020781876519322395,0.0365302674472332,-0.18511568009853363
1761140361693429500,1.899429443359375,0.07375437766313553,0.045740317553281784,-0.19833073019981384
1761140361703489300,1.9094892578125,0.13558179140090942,0.09414353221654892,-0.19822873175144196
1761140361713549300,1.91954931640625,0.18596427142620087,0.13478079438209534,-0.20732615888118744
1761140361723608300,1.9296083984375,0.22600862383842468,0.16712968051433563,-0.23440012335777283
1761140361733668400,1.93966845703125,0.2518877387046814,0.1692262440919876,-0.2751852869987488
1761140361743727400,1.949727294921875,0.23867341876029968,0.12420230358839035,-0.30768251419067383
1761140361753787400,1.959787353515625,0.1876542866230011,0.06165549159049988,-0.2933109998703003
1761140361763846400,1.969846435546875,0.13675302267074585,0.0176912359893322,-0.2099681794643402
1761140361773906400,1.979906494140625,0.10147282481193542,-0.0372764952480793,-0.09405402839183807
1761140361783965400,1.98996533203125,0.07969535142183304,-0.0959153100848198,0.017869573086500168
1761140361794025500,2.000025390625,0.061685118824243546,-0.13905096054077148,0.09509739279747009
1761140361804085200,2.010085205078125,0.045378584414720535,-0.17033751308918,0.13321414589881897
1761140361814144300,2.020144287109375,0.03360528126358986,-0.17307843267917633,0.13243117928504944
1761140361824204500,2.03020458984375,0.039293527603149414,-0.1410169005393982,0.09705055505037308
1761140361834263300,2.04026318359375,0.058730728924274445,-0.10627496987581253,0.04577486962080002
1761140361844323300,2.0503232421875,0.08451305329799652,-0.08334915339946747,-0.003217441961169243
1761140361854382300,2.06038232421875,0.09273029118776321,-0.07060647010803223,-0.035518597811460495
1761140361864442400,2.0704423828125,0.0794360563158989,-0.05703873187303543,-0.041534945368766785
1761140361874501400,2.08050146484375,0.05548115074634552,-0.03995645046234131,-0.029949020594358444
1761140361884561400,2.0905615234375,0.021246744319796562,-0.020261839032173157,-0.0004228214966133237
1761140361894621400,2.100621337890625,-0.012159056030213833,-0.015069127082824707,0.04589799419045448
1761140361904680200,2.11068017578125,-0.03439325466752052,-0.022169912233948708,0.10641087591648102
1761140361914740200,2.120740234375,-0.05012108385562897,-0.04218330234289169,0.16395965218544006
1761140361924799500,2.130799560546875,-0.052292995154857635,-0.05965021625161171,0.21425548195838928
1761140361934859300,2.140859375,-0.04429284855723381,-0.06283725798130035,0.24234534800052643
1761140361944918300,2.150918212890625,-0.026921050623059273,-0.0562046617269516,0.23903824388980865
1761140361954978600,2.160978515625,-0.01587584801018238,-0.03926540166139603,0.21894778311252594
1761140361965037300,2.171037353515625,-0.01628650724887848,-0.01653239130973816,0.18497170507907867
1761140361975097300,2.181097412109375,-0.022035876289010048,0.003081411588937044,0.13918735086917877
1761140361985157400,2.191157470703125,-0.029472220689058304,0.012997424229979515,0.10131374001502991
1761140361995216400,2.20121630859375,-0.04560262709856033,0.014305917546153069,0.07358856499195099
1761140362005276400,2.2112763671875,-0.0655885860323906,0.00441840011626482,0.05133998021483421
1761140362015335400,2.22133544921875,-0.07878485321998596,-0.005340049043297768,0.03951381891965866
1761140362025395500,2.2313955078125,-0.0881384089589119,-0.003826308064162731,0.03258294239640236
1761140362035454200,2.2414541015625,-0.08791244029998779,0.011390306055545807,0.03332684561610222
1761140362045514200,2.25151416015625,-0.08218557387590408,0.015087572857737541,0.023846257477998734
1761140362055573500,2.261573486328125,-0.07131747901439667,0.004491387400776148,0.016145993024110794
1761140362065633300,2.27163330078125,-0.06841064244508743,-0.03299686312675476,0.011396512389183044
1761140362075692300,2.2816923828125,-0.07888627797365189,-0.09171991050243378,-0.002554645761847496
1761140362085752300,2.29175244140625,-0.08292815834283829,-0.11635095626115799,-0.011973181739449501
1761140362095812400,2.301812255859375,-0.07592333108186722,-0.10224905610084534,-0.01570805162191391
1761140362105871400,2.311871337890625,-0.06831015646457672,-0.04983857274055481,-0.0119766965508461
1761140362115931400,2.321931396484375,-0.061379749327898026,0.021838221698999405,-0.0020798989571630955
1761140362125990400,2.331990478515625,-0.056436121463775635,0.07038099318742752,0.004031789023429155
1761140362136050400,2.342050537109375,-0.06168803945183754,0.056121643632650375,-0.015468723140656948
1761140362146109400,2.352109375,-0.06756404042243958,0.0222702044993639,-0.03957059606909752
1761140362156169500,2.36216943359375,-0.07728499174118042,-0.008022192865610123,-0.04994415119290352
1761140362166228200,2.372228271484375,-0.08789875358343124,-0.03003801219165325,-0.053596943616867065
1761140362176288300,2.382288330078125,-0.07626821100711823,-0.018327517434954643,-0.05053607374429703
1761140362186348500,2.3923486328125,-0.055520057678222656,0.013533476740121841,-0.035843946039676666
1761140362196407300,2.4024072265625,-0.029089249670505524,0.04704083502292633,-0.006144640035927296
1761140362206467300,2.41246728515625,-0.004556208848953247,0.07536648213863373,0.030602987855672836
1761140362216526300,2.4225263671875,0.01574125699698925,0.08336170017719269,0.07377919554710388
1761140362226586400,2.43258642578125,0.014559345319867134,0.06987358629703522,0.09421150386333466
1761140362236645400,2.442645263671875,0.013558135367929935,0.037172213196754456,0.09588751196861267
1761140362246705400,2.452705322265625,0.0010221030097454786,0.025120610371232033,0.07387675344944
1761140362256764400,2.462764404296875,-0.0025315266102552414,0.034489426761865616,0.054498981684446335
1761140362266824200,2.47282421875,-0.004702002741396427,0.05159943923354149,0.029461540281772614
1761140362276883500,2.482883544921875,-0.005158808548003435,0.06686850637197495,0.009918873198330402
1761140362286943500,2.492943603515625,0.006230466067790985,0.07597491890192032,0.008217379450798035
1761140362297003300,2.503003173828125,0.02233765833079815,0.08484978973865509,0.029368387535214424
1761140362307062300,2.513062255859375,0.03963062912225723,0.0918658897280693,0.05365188792347908
1761140362317122600,2.52312255859375,0.05182211101055145,0.09424616396427155,0.07628339529037476
1761140362327181300,2.533181396484375,0.0548916719853878,0.0862918347120285,0.09324479848146439
1761140362337241300,2.543241455078125,0.05006556212902069,0.07796616107225418,0.09884075075387955
1761140362347300400,2.55330029296875,0.04139937460422516,0.06530389934778214,0.09972625225782394
1761140362357360400,2.5633603515625,0.032992955297231674,0.033598098903894424,0.09011492878198624
1761140362367419100,2.573419189453125,0.02502264827489853,0.008969983085989952,0.07366884499788284
1761140362377479400,2.5834794921875,0.005859064403921366,-0.010824717581272125,0.04009420424699783
1761140362387538400,2.593538330078125,-0.007180038373917341,-0.01121114194393158,0.0073953792452812195
1761140362397598200,2.60359814453125,-0.007262696512043476,-0.00563210342079401,-0.02786695398390293
1761140362407658200,2.613658203125,0.002742533339187503,0.00016506575047969818,-0.03687136992812157
1761140362417717500,2.623717529296875,0.0224587582051754,0.007839260622859001,-0.02084697037935257
1761140362427777300,2.63377734375,0.02847004495561123,-0.01907331496477127,0.00042715927702374756
1761140362437836300,2.643836181640625,0.028564754873514175,-0.05291438475251198,0.021113846451044083
1761140362447896300,2.653896240234375,0.012973545119166374,-0.08148131519556046,0.017445340752601624
1761140362457955300,2.663955322265625,-0.007449659518897533,-0.08158648014068604,-0.0028592399321496487
1761140362468015400,2.674015380859375,-0.026074210181832314,-0.06974127143621445,-0.047680240124464035
1761140362478074400,2.684074462890625,-0.036052946001291275,-0.04344400018453598,-0.09605824202299118
1761140362488134400,2.694134521484375,-0.0381762832403183,-0.015845129266381264,-0.12869128584861755
1761140362498193200,2.704193115234375,-0.043307334184646606,0.000316474586725235,-0.14468814432621002
1761140362508253400,2.71425341796875,-0.04467300325632095,-0.007659692782908678,-0.12856189906597137
1761140362518313500,2.7243134765625,-0.04183807596564293,-0.03151172026991844,-0.09564778953790665
1761140362528372200,2.734372314453125,-0.04529326409101486,-0.06779994815587997,-0.05751105770468712
1761140362538432300,2.744432373046875,-0.0485181100666523,-0.09181459248065948,-0.029248353093862534
1761140362548491300,2.7544912109375,-0.05184546485543251,-0.09468494355678558,-0.018538717180490494
1761140362558551300,2.76455126953125,-0.0556848980486393,-0.06238450109958649,-0.03178272396326065
1761140362568610300,2.7746103515625,-0.05303425341844559,-0.005439991131424904,-0.0566776879131794
1761140362578670300,2.78467041015625,-0.0465247817337513,0.04482176527380943,-0.07467684894800186
1761140362588729300,2.794729248046875,-0.03318101167678833,0.06813720613718033,-0.08338192850351334
1761140362598789400,2.804789306640625,-0.027973568066954613,0.07080914080142975,-0.08093070238828659
1761140362608849400,2.814849365234375,-0.023952992632985115,0.049429018050432205,-0.06897364556789398
1761140362618908400,2.824908447265625,-0.0393640361726284,0.017024051398038864,-0.06051615998148918
1761140362628968200,2.83496826171875,-0.05827993527054787,-0.007878635078668594,-0.058440759778022766
1761140362639027500,2.84502734375,-0.07054860889911652,-0.012294336222112179,-0.05853483825922012
1761140362649087500,2.85508740234375,-0.07474815100431442,-0.00547451339662075,-0.06792034953832626
1761140362659146200,2.865146240234375,-0.0660909041762352,0.008001651614904404,-0.07774945348501205
1761140362669206300,2.875206298828125,-0.04387374967336655,0.022886324673891068,-0.08136709034442902
1761140362679265300,2.885265380859375,-0.02490207925438881,0.02302025817334652,-0.07568991184234619
1761140362689325300,2.8953251953125,-0.01548780594021082,0.013657648116350174,-0.08151690661907196
1761140362699384600,2.905384521484375,-0.007013167720288038,0.008169770240783691,-0.08428246527910233
1761140362709444400,2.9154443359375,0.0002407503197900951,0.008394274860620499,-0.0868217870593071
1761140362719503400,2.92550341796875,0.0002510083431843668,0.013772642239928246,-0.08515162765979767
1761140362729563100,2.935563232421875,0.0009660670766606927,0.005639879498630762,-0.07786096632480621
1761140362739623400,2.94562353515625,0.006010589189827442,-0.0112859345972538,-0.06386778503656387
1761140362749682200,2.95568212890625,0.009140601381659508,-0.04131840169429779,-0.05998196080327034
1761140362759742200,2.9657421875,0.014120346866548061,-0.05237187072634697,-0.05629929527640343
1761140362769801500,2.975801513671875,0.02004295028746128,-0.039948489516973495,-0.05962744727730751
1761140362779861200,2.985861328125,0.03204803168773651,-0.020505424588918686,-0.06993012875318527
1761140362789920300,2.995920166015625,0.045379284769296646,-0.006295862607657909,-0.08365686237812042
1761140362799980300,3.005980224609375,0.05509132519364357,-0.004329800605773926,-0.08553988486528397
1761140362810039300,3.016039306640625,0.0661168098449707,-0.01500854454934597,-0.0809754952788353
1761140362820099300,3.026099365234375,0.06893601268529892,-0.033477723598480225,-0.07038935273885727
1761140362830159000,3.0361591796875,0.0705307126045227,-0.04716424271464348,-0.06304062902927399
1761140362840218400,3.04621826171875,0.06746891140937805,-0.047989483922719955,-0.05692841857671738
1761140362850278400,3.0562783203125,0.05700748786330223,-0.03862500935792923,-0.0475759282708168
1761140362860337200,3.066337158203125,0.04306024685502052,-0.02580668218433857,-0.027891438454389572
1761140362870397400,3.0763974609375,0.026878880336880684,-0.024618646129965782,-0.010086609981954098
1761140362880456200,3.086456298828125,0.007128769066184759,-0.03812351077795029,0.008347674272954464
1761140362890516200,3.09651611328125,-0.011673148721456528,-0.059050098061561584,0.016889497637748718
1761140362900575200,3.1065751953125,-0.025994719937443733,-0.06582174450159073,0.02374885231256485
1761140362910635300,3.11663525390625,-0.02843337692320347,-0.055630359798669815,0.04232146963477135
1761140362920694300,3.1266943359375,-0.024415114894509315,-0.04705512151122093,0.06273515522480011
1761140362930754300,3.13675439453125,-0.022367943078279495,-0.0445173941552639,0.08235412836074829
1761140362940813300,3.146813232421875,-0.01887628249824047,-0.03442263975739479,0.09634754806756973
1761140362950873300,3.156873291015625,-0.022675814107060432,-0.02696712128818035,0.1060853973031044
1761140362960933000,3.16693310546875,-0.03745926916599274,-0.024621494114398956,0.09930185973644257
1761140362970992400,3.176992431640625,-0.05264807865023613,-0.02657252550125122,0.08130421489477158
1761140362981052200,3.18705224609375,-0.0640883520245552,-0.030246201902627945,0.05752609670162201
1761140362991111200,3.197111083984375,-0.08019781857728958,-0.026113241910934448,0.028848115354776382
1761140363001171500,3.20717138671875,-0.09368333965539932,0.0008947718888521194,0.011630119755864143
1761140363011230200,3.217230224609375,-0.09663545340299606,0.027142353355884552,0.013160638511180878
1761140363021290200,3.227290283203125,-0.0922786295413971,0.020379547029733658,0.026267005130648613
1761140363031349200,3.237349365234375,-0.08479034900665283,0.0016343556344509125,0.060680635273456573
1761140363041409300,3.2474091796875,-0.07452547550201416,-0.012794340960681438,0.1020398959517479
1761140363051468300,3.25746826171875,-0.06919755786657333,-0.01885835826396942,0.12637001276016235
1761140363061528300,3.2675283203125,-0.06790079176425934,-0.009066015481948853,0.1255679875612259
1761140363071588400,3.27758837890625,-0.06126951798796654,0.011342853307723999,0.09821198880672455
1761140363081647000,3.287647216796875,-0.055383555591106415,0.03133438155055046,0.057918746024370193
1761140363091707100,3.29770703125,-0.06321404874324799,0.04187410697340965,0.0033481805585324764
1761140363101766400,3.307766357421875,-0.07228117436170578,0.044388510286808014,-0.046312496066093445
1761140363111826200,3.317826171875,-0.08279640227556229,0.03294970095157623,-0.08624181151390076
1761140363121885200,3.32788525390625,-0.09918227791786194,0.01188800297677517,-0.11138065159320831
1761140363131945500,3.337945556640625,-0.10504043847322464,0.0008768970146775246,-0.10945704579353333
1761140363142004200,3.348004150390625,-0.11165457963943481,-0.009575886651873589,-0.09253929555416107
1761140363152064300,3.358064208984375,-0.10090978443622589,-0.014449205249547958,-0.07331686466932297
1761140363162123300,3.368123291015625,-0.08947794884443283,-0.01812281832098961,-0.06816847622394562
1761140363172183300,3.378183349609375,-0.07890120893716812,-0.033929478377103806,-0.07723334431648254
1761140363182242000,3.388241943359375,-0.07124011218547821,-0.05399225652217865,-0.10682807862758636
1761140363192302300,3.39830224609375,-0.06629195809364319,-0.06358682364225388,-0.14636988937854767
1761140363202362400,3.4083623046875,-0.05968151241540909,-0.04664943739771843,-0.1831820011138916
1761140363212421000,3.418421142578125,-0.05404280126094818,-0.025077564641833305,-0.2035224288702011
1761140363222481200,3.428481201171875,-0.06152865290641785,-0.013256721198558807,-0.21981221437454224
1761140363232540400,3.43854052734375,-0.06625096499919891,-0.002219250425696373,-0.21211807429790497
1761140363242600200,3.44860009765625,-0.0726650133728981,-0.013355383649468422,-0.1842515915632248
1761140363252659200,3.4586591796875,-0.06928759068250656,-0.06865698844194412,-0.1536441445350647
1761140363262719200,3.46871923828125,-0.0618160218000412,-0.11722248792648315,-0.11134609580039978
1761140363272778200,3.4787783203125,-0.05592484027147293,-0.1393972933292389,-0.07227885723114014
1761140363282838300,3.48883837890625,-0.04600705951452255,-0.1263773888349533,-0.04645919054746628
1761140363292897300,3.498897216796875,-0.03635097295045853,-0.08413486927747726,-0.03499907627701759
1761140363302957300,3.508957275390625,-0.025230245664715767,-0.04286309704184532,-0.032051581889390945
1761140363313017300,3.519017333984375,-0.015584276989102364,-0.00969715230166912,-0.02749171480536461
1761140363323076400,3.529076416015625,-0.010485137812793255,-0.000027643050998449326,-0.024081725627183914
1761140363333136400,3.539136474609375,-0.020509010180830956,-0.01803061179816723,-0.019525855779647827
1761140363343195100,3.549195068359375,-0.03268120810389519,-0.049277450889348984,-0.01431123074144125
1761140363353255200,3.559255126953125,-0.03475634381175041,-0.06635230779647827,0.00012949365191161633
1761140363363314200,3.569314208984375,-0.029697319492697716,-0.059324901551008224,0.028493784368038177
1761140363373374200,3.579374267578125,-0.010942273773252964,-0.036403339356184006,0.06609761714935303
1761140363383433200,3.58943310546875,-0.0014457274228334427,-0.014306738041341305,0.10043688118457794
1761140363393493200,3.5994931640625,0.0021226422395557165,-0.004737733863294125,0.12649911642074585
1761140363403552300,3.60955224609375,0.002367864828556776,-0.003315593581646681,0.13642306625843048
1761140363413612300,3.6196123046875,-0.004926799796521664,-0.012974346056580544,0.11934899538755417
1761140363423671300,3.62967138671875,-0.022220661863684654,-0.030700426548719406,0.08532745391130447
1761140363433731300,3.6397314453125,-0.03983534127473831,-0.03232681751251221,0.048863451927900314
1761140363443791000,3.649791015625,-0.04629436135292053,-0.02155005931854248,0.013235092163085938
1761140363453850400,3.659850341796875,-0.03790034353733063,-0.0058091795071959496,0.0001030447892844677
1761140363463910400,3.669910400390625,-0.01986324042081833,0.008898159489035606,0.014464298263192177
1761140363473969200,3.67996923828125,-0.002390773966908455,-0.0010074684396386147,0.04696871340274811
1761140363484029200,3.690029296875,0.011430627666413784,-0.02722480334341526,0.08086880296468735
1761140363494088200,3.700088134765625,0.01787867397069931,-0.054319269955158234,0.11367229372262955
1761140363504148200,3.710148193359375,0.012513644993305206,-0.07483179867267609,0.1058603972196579
1761140363514207500,3.72020751953125,0.0015542048495262861,-0.06106885150074959,0.07946047931909561
1761140363524267300,3.730267333984375,-0.003639032831415534,-0.001659485511481762,0.043721262365579605
1761140363534326300,3.740326171875,-0.012972613796591759,0.051484957337379456,0.009169944562017918
1761140363544386300,3.75038623046875,-0.01270455215126276,0.0785914808511734,-0.017344502732157707
1761140363554446300,3.7604462890625,0.006562086753547192,0.07547158002853394,-0.017739184200763702
1761140363564505300,3.77050537109375,0.023254044353961945,0.04075615853071213,0.014172900468111038
1761140363574565000,3.780565185546875,0.023510506376624107,-0.02517731674015522,0.0399182103574276
1761140363584624400,3.790624267578125,0.04833388701081276,-0.04330600053071976,0.0662127211689949
1761140363594684400,3.800684326171875,0.0594179630279541,-0.04345087707042694,0.07088497281074524
1761140363604743200,3.8107431640625,0.06126778572797775,-0.01925201714038849,0.053836844861507416
1761140363614803200,3.82080322265625,0.05848158523440361,0.021428300067782402,0.025504276156425476
1761140363624862200,3.8308623046875,0.051917947828769684,0.07171841710805893,-0.008995545096695423
1761140363634922200,3.840922119140625,0.029298657551407814,0.09156215935945511,-0.04465474188327789
1761140363644981500,3.8509814453125,0.00902204867452383,0.08387385308742523,-0.07488049566745758
1761140363655041300,3.861041259765625,0.0002354812459088862,0.06048118695616722,-0.0830092653632164
1761140363665100300,3.871100341796875,0.006351026240736246,0.03077857196331024,-0.06754410266876221
1761140363675160000,3.88116015625,0.01676931232213974,0.019233770668506622,-0.01864767260849476
1761140363685220400,3.891220458984375,0.030155830085277557,0.019866380840539932,0.03283637762069702
1761140363695279400,3.901279296875,0.040335763245821,0.02737356722354889,0.0704633817076683
1761140363705339100,3.911339111328125,0.04638208821415901,0.029914287850260735,0.08417012542486191
1761140363715398400,3.9213984375,0.04978853464126587,0.03657884895801544,0.06291596591472626
1761140363725458400,3.93145849609375,0.05538094416260719,0.037211958318948746,0.029249871149659157
1761140363735517200,3.94151708984375,0.054612621665000916,0.034978896379470825,-0.014645681716501713
1761140363745577500,3.951577392578125,0.05706359073519707,0.048562824726104736,-0.0510047972202301
1761140363755636500,3.961636474609375,0.06033821403980255,0.055908624082803726,-0.0649949163198471
1761140363765696500,3.971696533203125,0.06283878535032272,0.047567494213581085,-0.06285034865140915
1761140363775755500,3.981755615234375,0.060429420322179794,0.034567005932331085,-0.033601123839616776
1761140363785815600,3.991815673828125,0.05176045000553131,0.02501324936747551,0.005376887042075396
1761140363795874600,4.00187451171875,0.05156736820936203,0.02862449362874031,0.04678185284137726
1761140363805934300,4.011934326171875,0.050249308347702026,0.033554594963788986,0.08576870709657669
1761140363815993600,4.02199365234375,0.055244866758584976,0.036484070122241974,0.10507902503013611
1761140363826053600,4.0320537109375,0.05642595514655113,0.03342392295598984,0.10985932499170303
1761140363836113400,4.042113525390625,0.053497277200222015,0.02669571153819561,0.10373618453741074
1761140363846172700,4.052172607421875,0.05958687514066696,0.02344740927219391,0.09148101508617401
1761140363856232400,4.062232421875,0.06812656670808792,0.02922433614730835,0.08738373965024948
1761140363866291500,4.07229150390625,0.07801291346549988,0.04055584967136383,0.08855782449245453
1761140363876351500,4.0823515625,0.08846954256296158,0.04235268384218216,0.09960701316595078
1761140363886410500,4.092410400390625,0.08376552164554596,0.025480102747678757,0.10771630704402924
1761140363896470500,4.102470458984375,0.0726737231016159,0.005586821585893631,0.11278776079416275
1761140363906529500,4.112529541015625,0.0598006397485733,-0.011994327418506145,0.11749208718538284
1761140363916589600,4.122589599609375,0.04734157398343086,-0.01638321578502655,0.10997425019741058
1761140363926648600,4.132648681640625,0.03661711886525154,-0.0035522934049367905,0.10306407511234283
1761140363936708400,4.142708251953125,0.026720544323325157,0.017366303130984306,0.0957971066236496
1761140363946767600,4.152767578125,0.01953011006116867,0.029669594019651413,0.0948106124997139
1761140363956827400,4.162827392578125,0.020392442122101784,0.03109012544155121,0.09953399747610092
1761140363966887400,4.172887451171875,0.016928771510720253,0.028933588415384293,0.10727514326572418
1761140363976946700,4.18294677734375,0.009644493460655212,0.017528336495161057,0.11381267756223679
1761140363987006500,4.19300634765625,-0.0025298616383224726,-0.0015804648865014315,0.11128220707178116
1761140363997065500,4.2030654296875,-0.01847314089536667,-0.011711129918694496,0.10667600482702255
1761140364007125500,4.21312548828125,-0.03457985445857048,-0.02539699152112007,0.09721702337265015
1761140364017184500,4.2231845703125,-0.04361436516046524,-0.041482485830783844,0.07660282403230667
1761140364027244500,4.23324462890625,-0.053383421152830124,-0.03364751115441322,0.06220652908086777
1761140364037303600,4.243303466796875,-0.05641356483101845,-0.007646537851542234,0.052630867809057236
1761140364047363600,4.253363525390625,-0.0556953027844429,0.021068155765533447,0.044985365122556686
1761140364057422600,4.263422607421875,-0.05178524926304817,0.04359130561351776,0.04584876447916031
1761140364067482400,4.273482421875,-0.03562333062291145,0.05110545828938484,0.058517251163721085
1761140364077541600,4.283541748046875,-0.02151976153254509,0.04013935849070549,0.07151001691818237
1761140364087601400,4.293601318359375,-0.016786232590675354,0.010605571791529655,0.06856825947761536
1761140364097661400,4.303661376953125,-0.024630306288599968,-0.012163389474153519,0.054607171565294266
1761140364107720700,4.313720703125,-0.03168807923793793,-0.026013847440481186,0.026833947747945786
1761140364117780500,4.323780517578125,-0.03867674618959427,-0.033776961266994476,-0.01026947982609272
1761140364127839500,4.333839599609375,-0.048254963010549545,-0.03103712573647499,-0.05429168418049812
1761140364137899500,4.3438994140625,-0.05420206859707832,-0.02394060045480728,-0.0872027575969696
1761140364147958500,4.35395849609375,-0.05103308707475662,-0.021711943671107292,-0.09945940226316452
1761140364158018600,4.3640185546875,-0.03777454048395157,-0.024386823177337646,-0.09797655045986176
1761140364168077600,4.37407763671875,-0.030447138473391533,-0.03915635868906975,-0.08416600525379181
1761140364178137600,4.3841376953125,-0.023969531059265137,-0.05383170768618584,-0.06924191117286682
1761140364188196400,4.3941962890625,-0.013753102160990238,-0.05715883895754814,-0.04319283366203308
1761140364198256400,4.40425634765625,-0.011340810917317867,-0.05655616521835327,-0.017037663608789444
1761140364208315600,4.414315673828125,-0.010679667815566063,-0.05835692584514618,0.002842019312083721
1761140364218375400,4.42437548828125,-0.013323387131094933,-0.06532268971204758,0.01585981622338295
1761140364228434700,4.4344345703125,-0.01657906547188759,-0.06402858346700668,0.015872055664658546
1761140364238494700,4.44449462890625,-0.023822598159313202,-0.06564406305551529,0.00813370756804943
1761140364248554500,4.454554443359375,-0.03679777681827545,-0.0518643781542778,-0.006241868250072002
1761140364258613500,4.464613525390625,-0.050710130482912064,-0.0418705977499485,-0.018975507467985153
1761140364268673500,4.474673583984375,-0.06631974130868912,-0.04530379921197891,-0.030102277174592018
1761140364278732500,4.484732666015625,-0.07328017801046371,-0.03656729683279991,-0.02067681774497032
1761140364288792600,4.49479248046875,-0.06559127569198608,-0.013829698786139488,0.010918168351054192
1761140364298851600,4.5048515625,-0.05665423721075058,0.002182557713240385,0.03936605527997017
1761140364308911600,4.51491162109375,-0.05310157313942909,0.005011057481169701,0.06559276580810547
1761140364318970400,4.524970458984375,-0.04633767530322075,0.0091285714879632,0.08493316918611526
1761140364329030400,4.535030517578125,-0.0390043780207634,0.0070410980843007565,0.0973542332649231
1761140364339089700,4.545089599609375,-0.03463173285126686,-0.012460964731872082,0.09774891287088394
1761140364349149400,4.5551494140625,-0.036157798022031784,-0.03186305984854698,0.07524693757295609
1761140364359208700,4.565208740234375,-0.03921324014663696,-0.0422576405107975,0.04867231473326683
1761140364369268500,4.5752685546875,-0.04043331369757652,-0.04248364642262459,0.01730920746922493
1761140364379327500,4.585327392578125,-0.04535723105072975,-0.025853002443909645,-0.011153060011565685
1761140364389387500,4.595387451171875,-0.05069274455308914,0.005692827515304089,-0.030327104032039642
1761140364399447600,4.605447509765625,-0.0500197634100914,0.03308689966797829,-0.03512931615114212
1761140364409506600,4.615506591796875,-0.04110775887966156,0.040124036371707916,-0.026594949886202812
1761140364419566600,4.625566650390625,-0.03418726846575737,0.03437533974647522,-0.014455996453762054
1761140364429625600,4.63562548828125,-0.03389498591423035,0.010654674842953682,-0.01379411667585373
1761140364439685600,4.645685546875,-0.031902674585580826,-0.020906981080770493,-0.026386074721813202
1761140364449744400,4.655744384765625,-0.03159487619996071,-0.04901978373527527,-0.05207967758178711
1761140364459804400,4.665804443359375,-0.02726404368877411,-0.04704851284623146,-0.08453189581632614
1761140364469863400,4.675863525390625,-0.01959124580025673,-0.021143756806850433,-0.11414623260498047
1761140364479923500,4.68592333984375,-0.008571350947022438,0.006779487244784832,-0.1345047652721405
1761140364489982700,4.695982666015625,0.007317333482205868,0.026917513459920883,-0.14018341898918152
1761140364500042500,4.70604248046875,0.023883957415819168,0.0330190472304821,-0.13638025522232056
1761140364510101500,4.7161015625,0.03912448510527611,0.025251656770706177,-0.11879108846187592
1761140364520161500,4.72616162109375,0.040735695511102676,0.007895303890109062,-0.10544732213020325
1761140364530220500,4.736220458984375,0.03700295463204384,-0.021476952359080315,-0.09508369117975235
1761140364540280600,4.746280517578125,0.030659038573503494,-0.05388496071100235,-0.10361885279417038
1761140364550340400,4.75634033203125,0.03267617151141167,-0.07910537719726562,-0.12591105699539185
1761140364560399600,4.766399658203125,0.03631218522787094,-0.07553434371948242,-0.14792793989181519
1761140364570459600,4.776459716796875,0.04668009281158447,-0.0480758473277092,-0.15633516013622284
1761140364580518400,4.786518310546875,0.058562055230140686,-0.019237278029322624,-0.1559298187494278
1761140364590578400,4.796578369140625,0.0681966245174408,-0.000870000571012497,-0.14271701872348785
1761140364600637400,4.806637451171875,0.07086697965860367,-0.0063249533995985985,-0.1220461055636406
1761140364610697500,4.816697509765625,0.05694678798317909,-0.027097586542367935,-0.10616365820169449
1761140364620756700,4.8267568359375,0.034642547369003296,-0.04814774543046951,-0.08988694846630096
1761140364630816500,4.83681640625,0.012604018673300743,-0.052544787526130676,-0.06901747733354568
1761140364640875500,4.84687548828125,-0.0046974727883934975,-0.011701220646500587,-0.05298205465078354
1761140364650935300,4.856935302734375,-0.0063688182272017,0.042018987238407135,-0.04905517026782036
1761140364660994600,4.86699462890625,0.0025152210146188736,0.03646310046315193,-0.05225815251469612
1761140364671054600,4.8770546875,-0.007590079680085182,0.0384787917137146,-0.05055110901594162
1761140364681113600,4.887113525390625,-0.02321351319551468,0.017649143934249878,-0.042328331619501114
1761140364691173600,4.897173583984375,-0.028331585228443146,-0.005535493139177561,-0.02557561919093132
1761140364701232400,4.907232421875,-0.03467896580696106,-0.013535096310079098,-0.004995508585125208
1761140364711292400,4.91729248046875,-0.04392834007740021,-0.0256633497774601,0.00886309053748846
1761140364721352700,4.927352783203125,-0.05238600820302963,-0.025756295770406723,0.014647476375102997
1761140364731411500,4.937411376953125,-0.05222223326563835,-0.02617277018725872,0.018794648349285126
1761140364741471500,4.947471435546875,-0.043101437389850616,-0.02676931768655777,0.005232500843703747
1761140364751530200,4.9575302734375,-0.03268783912062645,-0.02677253633737564,-0.005539607256650925
1761140364761590300,4.96759033203125,-0.022796591743826866,-0.022291235625743866,-0.021117769181728363
1761140364771649300,4.977649169921875,-0.03156626224517822,-0.0200747549533844,-0.04517435282468796
1761140364781709300,4.987709228515625,-0.03937092423439026,-0.015093844383955002,-0.07159210741519928
1761140364791768300,4.997768310546875,-0.045087780803442,-0.02068961039185524,-0.0878177061676979
1761140364801828400,5.007828369140625,-0.040777191519737244,-0.03479291498661041,-0.08546213805675507
1761140364811887400,5.017887451171875,-0.029390549287199974,-0.05097600817680359,-0.06761419028043747
1761140364821947400,5.027947509765625,-0.013454992324113846,-0.05716679245233536,-0.05106104910373688
1761140364832006100,5.038006103515625,-0.005388681776821613,-0.017226945608854294,-0.03725317120552063
1761140364842066200,5.048066162109375,0.002505726646631956,0.014895835891366005,-0.04832260310649872
1761140364852125200,5.058125244140625,0.004053161013871431,0.03586674481630325,-0.07568863034248352
1761140364862185200,5.068185302734375,-0.0044662910513579845,0.037854261696338654,-0.1204875260591507
1761140364872244500,5.078244384765625,-0.017104579135775566,0.006324253045022488,-0.171316459774971
1761140364882304300,5.08830419921875,-0.025035206228494644,-0.03808475285768509,-0.20351673662662506
1761140364892364300,5.0983642578125,-0.023572789505124092,-0.07048354297876358,-0.211833655834198
1761140364902423300,5.10842333984375,-0.020385252311825752,-0.06651383638381958,-0.19778680801391602
1761140364912483300,5.1184833984375,-0.003970208112150431,-0.05474672466516495,-0.15430402755737305
1761140364922542300,5.128542236328125,0.012693190947175026,-0.032101865857839584,-0.08044365793466568
1761140364932602000,5.13860205078125,0.020336773246526718,-0.01201547309756279,0.007915649563074112
1761140364942661400,5.148661376953125,0.017910633236169815,-0.01941320300102234,0.09117565304040909
1761140364952721400,5.158721435546875,0.01756497658789158,-0.02619902417063713,0.15869750082492828
1761140364962780200,5.1687802734375,0.02333711087703705,-0.019886799156665802,0.2018742710351944
1761140364972840200,5.178840087890625,0.03205115720629692,0.0059342882595956326,0.2198748141527176
1761140364982899200,5.188899169921875,0.03884754329919815,0.035562485456466675,0.21840688586235046
1761140364992959200,5.198959228515625,0.050338730216026306,0.06250396370887756,0.2164590209722519
1761140365003018500,5.2090185546875,0.0608275905251503,0.08130081743001938,0.21732455492019653
1761140365013078300,5.219078369140625,0.06494414061307907,0.09377750009298325,0.22139501571655273
1761140365023137300,5.22913720703125,0.06465332955121994,0.08426841348409653,0.23469378054141998
1761140365033197000,5.239197021484375,0.05785348638892174,0.06230288743972778,0.24692851305007935
1761140365043256300,5.24925634765625,0.04173550382256508,0.027766482904553413,0.26432880759239197
1761140365053316400,5.25931640625,0.04173204302787781,0.006579440087080002,0.27404242753982544
1761140365063375400,5.269375244140625,0.03734394907951355,0.010012787766754627,0.28423914313316345
1761140365073435400,5.279435302734375,0.025584103539586067,0.010385474190115929,0.28389406204223633
1761140365083495400,5.289495361328125,0.03445535898208618,0.02092280238866806,0.293070524930954
1761140365093554200,5.29955419921875,0.010527553036808968,0.013333559036254883,0.26820051670074463
1761140365103614200,5.3096142578125,-0.0016460227780044079,0.004837809130549431,0.22998599708080292
1761140365113673200,5.319673095703125,-0.0047361236065626144,-0.002719785552471876,0.1980603039264679
1761140365123733200,5.329733154296875,-0.00940784066915512,-0.017730694264173508,0.17210513353347778
1761140365133792300,5.339792236328125,-0.005691739730536938,-0.027025558054447174,0.15708611905574799
1761140365143852300,5.349852294921875,0.0016764280153438449,-0.024038556963205338,0.15003353357315063
1761140365153911300,5.359911376953125,0.00835835374891758,-0.018940744921565056,0.13020075857639313
1761140365163971000,5.36997119140625,0.0102289579808712,-0.010820234194397926,0.10430657863616943
1761140365174030300,5.3800302734375,0.012054812163114548,0.002861799206584692,0.06102897599339485
1761140365184090400,5.39009033203125,0.013039115816354752,0.020686868578195572,0.01360526867210865
1761140365194149400,5.4001494140625,0.010294442996382713,0.040724847465753555,-0.030461594462394714
1761140365204209400,5.41020947265625,0.0075386036187410355,0.061841048300266266,-0.0656033381819725
1761140365214268200,5.42026806640625,0.005596941336989403,0.06706169247627258,-0.08249226212501526
1761140365224328200,5.430328125,0.009583959355950356,0.05047579109668732,-0.09259283542633057
1761140365234387200,5.44038720703125,0.016149338334798813,0.014401951804757118,-0.08895229548215866
1761140365244447200,5.450447265625,0.02491806261241436,-0.015897097066044807,-0.08317030221223831
1761140365254506200,5.46050634765625,0.040501438081264496,-0.02945869043469429,-0.08296216279268265
1761140365264566300,5.470566162109375,0.05960109829902649,-0.027446139603853226,-0.08347029238939285
1761140365274626300,5.480626220703125,0.08611799031496048,-0.015318159013986588,-0.09098363667726517
1761140365284685300,5.490685302734375,0.11917554587125778,0.0028262236155569553,-0.09197167307138443
1761140365294745000,5.5007451171875,0.14436951279640198,0.01814238540828228,-0.08754519373178482
1761140365304804400,5.510804443359375,0.1554754227399826,0.027811523526906967,-0.08091845363378525
1761140365314864000,5.520864013671875,0.15761114656925201,0.041978321969509125,-0.06369223445653915
1761140365324923400,5.53092333984375,0.15391388535499573,0.038180120289325714,-0.039219651371240616
1761140365334983400,5.5409833984375,0.1555177867412567,0.021738940849900246,-0.010326666757464409
1761140365345042200,5.551042236328125,0.16653528809547424,0.01087004691362381,0.023760728538036346
1761140365355102200,5.561102294921875,0.1660347729921341,0.002896299585700035,0.07294175028800964
1761140365365161200,5.5711611328125,0.16418972611427307,0.0010315543040633202,0.12285018712282181
1761140365375221200,5.58122119140625,0.18385319411754608,0.02141667529940605,0.1825224757194519
1761140365385280300,5.5912802734375,0.19743052124977112,0.03207677975296974,0.23359178006649017
1761140365395340300,5.60134033203125,0.19659850001335144,0.026191100478172302,0.2563009262084961
1761140365405399300,5.6113994140625,0.17567244172096252,0.02034066990017891,0.25165611505508423
1761140365415459000,5.621458984375,0.1597442626953125,0.02702956274151802,0.2261114865541458
1761140365425518300,5.631518310546875,0.14760638773441315,0.045542262494564056,0.19318389892578125
1761140365435578400,5.641578369140625,0.12321525812149048,0.06028730794787407,0.16070427000522614
1761140365445637000,5.65163720703125,0.10636943578720093,0.07272640615701675,0.13844025135040283
1761140365455697400,5.661697509765625,0.07778953015804291,0.07133879512548447,0.11830367147922516
1761140365465757400,5.67175732421875,0.03656166419386864,0.05361812189221382,0.09442630410194397
1761140365475816200,5.681816162109375,-0.0006420110585168004,0.03919684886932373,0.0804029032588005
1761140365485876200,5.691876220703125,-0.03439571335911751,0.03478532284498215,0.07294099032878876
1761140365495935200,5.701935302734375,-0.055557217448949814,0.043997872620821,0.07086283713579178
1761140365505995300,5.711995361328125,-0.06776142120361328,0.06451486796140671,0.06403103470802307
1761140365516054300,5.72205419921875,-0.07594925910234451,0.08449579775333405,0.04393497109413147
1761140365526114300,5.7321142578125,-0.0888083353638649,0.09275878965854645,0.014820232056081295
1761140365536173300,5.74217333984375,-0.11241356283426285,0.08546857535839081,-0.040945809334516525
1761140365546233000,5.752233154296875,-0.13982893526554108,0.06668610125780106,-0.11158056557178497
1761140365556292400,5.762292236328125,-0.16793568432331085,0.04010060429573059,-0.19405882060527802
1761140365566352400,5.772352294921875,-0.19460192322731018,-0.011441417038440704,-0.2916724681854248
1761140365576411100,5.7824111328125,-0.20521478354930878,-0.04586963355541229,-0.38300955295562744
1761140365586471400,5.792471435546875,-0.19372431933879852,-0.05196294188499451,-0.4552898705005646
1761140365596530200,5.8025302734375,-0.16894757747650146,-0.04237809404730797,-0.5136296153068542
1761140365606590200,5.812590087890625,-0.13160419464111328,-0.008597493171691895,-0.5333636403083801
1761140365616649200,5.822649169921875,-0.10133736580610275,0.01809057593345642,-0.5372316241264343
1761140365626709200,5.832709228515625,-0.07776066660881042,0.008845945820212364,-0.5201924443244934
1761140365636768300,5.842768310546875,-0.05121241509914398,-0.005298902280628681,-0.47567319869995117
1761140365646828300,5.852828369140625,-0.026646887883543968,-0.013617020100355148,-0.4061005115509033
1761140365656888300,5.862888427734375,-0.0033751006703823805,-0.03279479593038559,-0.3219868838787079
1761140365666947300,5.872947265625,0.007592329755425453,-0.045820318162441254,-0.22653093934059143
1761140365677007000,5.883007080078125,0.020004449412226677,-0.0326591432094574,-0.13262560963630676
1761140365687066400,5.89306640625,0.03771260753273964,-0.015294000506401062,-0.042444583028554916
1761140365697126400,5.90312646484375,0.060766708105802536,0.007318245247006416,0.03823132440447807
1761140365707185200,5.91318505859375,0.09758225083351135,0.04129645228385925,0.10670652240514755
1761140365717245400,5.923245361328125,0.12991343438625336,0.06424076110124588,0.17252103984355927
1761140365727304200,5.93330419921875,0.14870895445346832,0.08625311404466629,0.2178909182548523
1761140365737364200,5.9433642578125,0.14893658459186554,0.10576166957616806,0.24194632470607758
1761140365747424000,5.953424072265625,0.15120187401771545,0.11076868325471878,0.2532133460044861
1761140365757483800,5.96348388671875,0.14606338739395142,0.12872889637947083,0.2488705813884735
1761140365767542800,5.973542724609375,0.154872328042984,0.12318924814462662,0.23591110110282898
1761140365777602600,5.9836025390625,0.1323239803314209,0.09683086723089218,0.22709135711193085
1761140365787661800,5.993661865234375,0.0765448659658432,0.032753076404333115,0.21861398220062256
1761140365797721900,6.003721923828125,0.015700653195381165,-0.025983285158872604,0.22037753462791443
1761140365807780900,6.01378076171875,-0.026972774416208267,-0.03680583834648132,0.2216167002916336
1761140365817841000,6.0238408203125,-0.06334559619426727,-0.03759143874049187,0.21678130328655243
1761140365827899600,6.033899658203125,-0.09876696765422821,-0.03244434669613838,0.19590052962303162
1761140365837959700,6.043959716796875,-0.13030295073986053,-0.022479886189103127,0.17080967128276825
1761140365848019000,6.05401904296875,-0.14925560355186462,-0.021922752261161804,0.13940007984638214
1761140365858078700,6.06407861328125,-0.14337001740932465,-0.0023021800443530083,0.10688101500272751
1761140365868137700,6.0741376953125,-0.13660398125648499,0.02630283497273922,0.07407859712839127
1761140365878197800,6.08419775390625,-0.12583424150943756,0.05594933032989502,0.04646913707256317
1761140365888256800,6.0942568359375,-0.12050021439790726,0.08712270110845566,0.03986716270446777
1761140365898316800,6.10431689453125,-0.11569516360759735,0.10499328374862671,0.04228004813194275
1761140365908376600,6.11437646484375,-0.10877307504415512,0.10009492933750153,0.05839456990361214
1761140365918435800,6.124435791015625,-0.10018899291753769,0.08609643578529358,0.07864227890968323
1761140365928495900,6.134495849609375,-0.08967696875333786,0.07164905220270157,0.10513754189014435
1761140365938555000,6.144554931640625,-0.07814812660217285,0.06265471875667572,0.12522034347057343
1761140365948615000,6.154614990234375,-0.07225614786148071,0.09637486189603806,0.14113247394561768
1761140365958673700,6.164673583984375,-0.07298118621110916,0.12863992154598236,0.14190636575222015
1761140365968733700,6.174733642578125,-0.05664295703172684,0.1426692008972168,0.12835301458835602
1761140365978792700,6.184792724609375,-0.019645748659968376,0.13776473701000214,0.11921771615743637
1761140365988852700,6.194852783203125,0.005200214218348265,0.1140543520450592,0.11137284338474274
1761140365998911700,6.204911865234375,0.021448269486427307,0.06686365604400635,0.09844862669706345
1761140366008971800,6.2149716796875,0.018492693081498146,-0.0050672623328864574,0.0634688064455986
1761140366019030800,6.22503076171875,0.004889955744147301,-0.09633590281009674,0.0019805736374109983
1761140366029090800,6.2350908203125,-0.014659777283668518,-0.16110718250274658,-0.08819752186536789
1761140366039149800,6.24514990234375,-0.04578745737671852,-0.17152805626392365,-0.20359496772289276
1761140366049209900,6.2552099609375,-0.10904844850301743,-0.14810581505298615,-0.31701257824897766
1761140366059268600,6.2652685546875,-0.17555786669254303,-0.10658476501703262,-0.4157763719558716
1761140366069329000,6.275328857421875,-0.22179140150547028,-0.06829676032066345,-0.47680217027664185
1761140366079387600,6.2853876953125,-0.24060781300067902,-0.05165225267410278,-0.5089879035949707
1761140366089447700,6.29544775390625,-0.2469693124294281,-0.06707648187875748,-0.5108653903007507
1761140366099507000,6.3055068359375,-0.25145483016967773,-0.08911672979593277,-0.4897782802581787
1761140366109566700,6.315566650390625,-0.24689310789108276,-0.10499849170446396,-0.45785096287727356
1761140366119626800,6.325626708984375,-0.2244960367679596,-0.10836594551801682,-0.4031306505203247
1761140366129685800,6.335685791015625,-0.18226975202560425,-0.07758006453514099,-0.3366328477859497
1761140366139745800,6.345745849609375,-0.1288764923810959,-0.035783007740974426,-0.2561279237270355
1761140366149804800,6.3558046875,-0.08795301616191864,-0.024591872468590736,-0.17780572175979614
1761140366159864600,6.365864501953125,-0.058279022574424744,-0.05886005237698555,-0.10851255804300308
1761140366169923800,6.375923828125,-0.03661340847611427,-0.10589361190795898,-0.05447622761130333
1761140366179984000,6.38598388671875,-0.0255146287381649,-0.1605755090713501,-0.022236211225390434
1761140366190042600,6.396042724609375,-0.03322874382138252,-0.22381919622421265,-0.033965304493904114
1761140366200103000,6.40610302734375,-0.036978673189878464,-0.26811134815216064,-0.06232481822371483
1761140366210161700,6.41616162109375,-0.0330667570233345,-0.27682921290397644,-0.10134997963905334
1761140366220221700,6.4262216796875,-0.013220688328146935,-0.26664915680885315,-0.12719236314296722
1761140366230281000,6.436281005859375,0.017177695408463478,-0.2366792857646942,-0.1319247931241989
1761140366240340700,6.4463408203125,0.053131796419620514,-0.20291031897068024,-0.10811673104763031
1761140366250399700,6.456399658203125,0.08551689982414246,-0.18899904191493988,-0.0686018094420433
1761140366260459800,6.466459716796875,0.10764914005994797,-0.18452328443527222,-0.012296045199036598
1761140366270518800,6.476518798828125,0.11919926851987839,-0.1829000860452652,0.04754837974905968
1761140366280578800,6.486578857421875,0.10788559168577194,-0.19043181836605072,0.09675252437591553
1761140366290637800,6.496637939453125,0.08405109494924545,-0.18828903138637543,0.1221870481967926
1761140366300697900,6.50669775390625,0.06364918500185013,-0.18025259673595428,0.12461796402931213
1761140366310756600,6.516756591796875,0.041732970625162125,-0.16056305170059204,0.09914402663707733
1761140366320816600,6.526816650390625,0.036091506481170654,-0.13051865994930267,0.0625431016087532
1761140366330876000,6.5368759765625,0.03773334622383118,-0.11407312005758286,0.011907888576388359
1761140366340935700,6.546935791015625,0.04365098103880882,-0.1265249252319336,-0.035015642642974854
1761140366350995000,6.556994873046875,0.05729036033153534,-0.1326078474521637,-0.06888439506292343
1761140366361054700,6.5670546875,0.0671069473028183,-0.1310100257396698,-0.09469978511333466
1761140366371113700,6.57711376953125,0.06518574059009552,-0.11342331022024155,-0.11431422829627991
1761140366381173800,6.587173828125,0.0502309650182724,-0.09486128389835358,-0.12323817610740662
1761140366391233800,6.59723388671875,0.031165925785899162,-0.06558942049741745,-0.14162090420722961
1761140366401292800,6.607292724609375,0.011196192353963852,-0.020037822425365448,-0.1650988757610321
1761140366411352800,6.617352783203125,0.0023278663866221905,0.02863224409520626,-0.19676439464092255
1761140366421411800,6.627411865234375,0.0020059000235050917,0.055090706795454025,-0.23418323695659637
1761140366431471900,6.637471923828125,-0.0017579455161467195,0.07190164178609848,-0.2692810297012329
1761140366441530600,6.647530517578125,-0.010658579878509045,0.07332578301429749,-0.2961962819099426
1761140366451590700,6.657590576171875,-0.019222240895032883,0.059292517602443695,-0.31107136607170105
1761140366461649700,6.667649658203125,-0.010929734446108341,0.025713486596941948,-0.31327077746391296
1761140366471709700,6.677709716796875,0.01708885096013546,-0.005471596959978342,-0.313526451587677
1761140366481769000,6.68776904296875,0.0492682084441185,-0.036259934306144714,-0.3126438558101654
1761140366491828700,6.697828857421875,0.07659117877483368,-0.06251657009124756,-0.3190346360206604
1761140366501887700,6.7078876953125,0.10207579284906387,-0.08902581036090851,-0.3286990225315094
1761140366511947800,6.71794775390625,0.13133780658245087,-0.1013980582356453,-0.33996737003326416
1761140366522006800,6.7280068359375,0.15577833354473114,-0.09174390882253647,-0.34471040964126587
1761140366532066800,6.73806689453125,0.17489956319332123,-0.07202453166246414,-0.33402368426322937
1761140366542125800,6.748125732421875,0.18562860786914825,-0.0541188083589077,-0.30405181646347046
1761140366552185900,6.758185791015625,0.19887331128120422,-0.046917352825403214,-0.2562131881713867
1761140366562244600,6.76824462890625,0.2145942598581314,-0.0695241391658783,-0.19794689118862152
1761140366572304600,6.7783046875,0.23374558985233307,-0.09478475153446198,-0.1456969976425171
1761140366582364000,6.788364013671875,0.25364333391189575,-0.12356738746166229,-0.09670021384954453
1761140366592423700,6.798423583984375,0.2808381915092468,-0.13502244651317596,-0.057231105864048004
1761140366602482700,6.808482666015625,0.30327391624450684,-0.13585396111011505,-0.027002034708857536
1761140366612543000,6.81854296875,0.3220673203468323,-0.12766580283641815,-0.009866988286376
1761140366622601700,6.828601806640625,0.3228546380996704,-0.10820148140192032,0.00391107564792037
1761140366632661800,6.838661865234375,0.3218231797218323,-0.09016469120979309,-0.00026476068887859583
1761140366642720800,6.848720703125,0.310444176197052,-0.10030866414308548,-0.014639445580542088
1761140366652780800,6.85878076171875,0.3039324879646301,-0.10891839861869812,-0.01750181056559086
1761140366662840800,6.8688408203125,0.2816831171512604,-0.1321495920419693,0.004282671958208084
1761140366672899800,6.87889990234375,0.2652503252029419,-0.15868638455867767,0.05408138781785965
1761140366682960000,6.8889599609375,0.24844321608543396,-0.17597977817058563,0.11737127602100372
1761140366693018600,6.8990185546875,0.2340429723262787,-0.1969018429517746,0.15886224806308746
1761140366703078700,6.90907861328125,0.19516286253929138,-0.2244424968957901,0.17180189490318298
1761140366713138000,6.919137939453125,0.17843447625637054,-0.27465078234672546,0.16267098486423492
1761140366723197700,6.92919775390625,0.14632779359817505,-0.3255116045475006,0.1290484070777893
1761140366733256700,6.939256591796875,0.0984494760632515,-0.37323012948036194,0.07395400106906891
1761140366743317000,6.94931689453125,0.04365362599492073,-0.41903045773506165,-0.0023398958146572113
1761140366753375700,6.959375732421875,0.005117951426655054,-0.4391202926635742,-0.07731480151414871
1761140366763435800,6.969435791015625,-0.031028032302856445,-0.41446200013160706,-0.1485874056816101
1761140366773495000,6.9794951171875,-0.06939273327589035,-0.37125033140182495,-0.19524678587913513
1761140366783554800,6.989554931640625,-0.09470531344413757,-0.3795166015625,-0.23045189678668976
1761140366793613800,6.99961376953125,-0.11811742931604385,-0.3961600363254547,-0.24082250893115997
1761140366803673900,7.009673828125,-0.14049790799617767,-0.3749769330024719,-0.22697509825229645
1761140366813732900,7.01973291015625,-0.16364610195159912,-0.3160907030105591,-0.18283453583717346
1761140366823793000,7.02979296875,-0.17185309529304504,-0.2145654261112213,-0.11723895370960236
1761140366833852000,7.039851806640625,-0.168473020195961,-0.08793238550424576,-0.03412675857543945
1761140366843912000,7.049911865234375,-0.16026723384857178,0.05709723010659218,0.05384096875786781
1761140366853970700,7.059970703125,-0.15150649845600128,0.18772101402282715,0.1455432027578354
1761140366864030700,7.07003076171875,-0.15163367986679077,0.24401724338531494,0.23682545125484467
1761140366874090000,7.080090087890625,-0.13985346257686615,0.2212488204240799,0.3218836188316345
1761140366884149800,7.090149658203125,-0.12852641940116882,0.19294139742851257,0.40267810225486755
1761140366894209000,7.100208984375,-0.12095265090465546,0.17955368757247925,0.4635627567768097
1761140366904268800,7.110268798828125,-0.10987488925457001,0.19561031460762024,0.5029960870742798
1761140366914327800,7.120327880859375,-0.10397572815418243,0.2192690372467041,0.5243545770645142
1761140366924387800,7.130387939453125,-0.10195500403642654,0.2517416477203369,0.5230776071548462
1761140366934446800,7.14044677734375,-0.1064288467168808,0.27150392532348633,0.5028873682022095
1761140366944507000,7.1505068359375,-0.10823924839496613,0.2870369553565979,0.463608980178833
1761140366954567000,7.16056689453125,-0.10139065980911255,0.2914881706237793,0.41014257073402405
1761140366964626000,7.1706259765625,-0.07998831570148468,0.27551451325416565,0.3565060794353485
1761140366974686000,7.18068603515625,-0.03517797216773033,0.26863396167755127,0.2967788279056549
1761140366984744700,7.19074462890625,0.0025609475560486317,0.2766934335231781,0.22979363799095154
1761140366994804700,7.2008046875,0.043534744530916214,0.25853148102760315,0.16378799080848694
1761140367004863700,7.21086376953125,0.08193828910589218,0.31401941180229187,0.09933871030807495
1761140367014923800,7.220923828125,0.1121225580573082,0.3769690990447998,0.04157714173197746
1761140367024983000,7.230983154296875,0.1479683369398117,0.33783477544784546,-0.02176332101225853
1761140367035042800,7.241042724609375,0.17337702214717865,0.22864490747451782,-0.06652147322893143
1761140367045101800,7.251101806640625,0.1713925451040268,0.053172074258327484,-0.08394359052181244
1761140367055161900,7.261161865234375,0.13237084448337555,-0.1645195037126541,-0.06421595811843872
1761140367065220900,7.271220947265625,0.057439617812633514,-0.350183367729187,-0.011542895808815956
1761140367075281000,7.281281005859375,-0.025419706478714943,-0.4509514272212982,0.0468406043946743
1761140367085340000,7.29133984375,-0.06907739490270615,-0.46000638604164124,0.10328724980354309
1761140367095400000,7.30139990234375,-0.047061577439308167,-0.4002802073955536,0.13609740138053894
1761140367105458700,7.311458740234375,0.007281449623405933,-0.3171831965446472,0.14986664056777954
1761140367115518700,7.321518798828125,0.04898016154766083,-0.22066730260849,0.1572481244802475
1761140367125578000,7.331577880859375,0.07057612389326096,-0.11384561657905579,0.17073960602283478
1761140367135637800,7.3416376953125,0.09286332130432129,-0.022256314754486084,0.195733904838562
1761140367145696800,7.35169677734375,0.10422702878713608,0.07157377153635025,0.2237229347229004
1761140367155757000,7.361757080078125,0.10333220660686493,0.14602723717689514,0.2263765037059784
1761140367165815800,7.37181591796875,0.09655717760324478,0.1954704076051712,0.21074619889259338
1761140367175875800,7.381875732421875,0.08630747348070145,0.22342000901699066,0.18588612973690033
1761140367185934800,7.391934814453125,0.05801697075366974,0.21393336355686188,0.14786718785762787
1761140367195995000,7.401994873046875,0.024100016802549362,0.18971936404705048,0.11613962054252625
1761140367206054000,7.412053955078125,-0.008532879874110222,0.17162777483463287,0.10008155554533005
1761140367216114000,7.422114013671875,-0.03624546900391579,0.15394118428230286,0.08831757307052612
1761140367226173000,7.4321728515625,-0.07758810371160507,0.11750536412000656,0.06209971755743027
1761140367236232700,7.442232666015625,-0.12655511498451233,0.09004710614681244,0.015980426222085953
1761140367246292000,7.4522919921875,-0.1667366921901703,0.08010563254356384,-0.04021719470620155
1761140367256352000,7.46235205078125,-0.18841029703617096,0.09841832518577576,-0.09628099948167801
1761140367266410800,7.47241064453125,-0.1896258443593979,0.12354055792093277,-0.13036611676216125
1761140367276470800,7.482470703125,-0.19738709926605225,0.1599006950855255,-0.14919519424438477
1761140367286531000,7.492531005859375,-0.2004278302192688,0.1890260875225067,-0.1423036903142929
1761140367296589800,7.50258984375,-0.19974872469902039,0.20811136066913605,-0.11138731241226196
1761140367306649900,7.51264990234375,-0.18607169389724731,0.22429515421390533,-0.06925041228532791
1761140367316708900,7.522708984375,-0.1830013394355774,0.24650591611862183,-0.0237542986869812
1761140367326769000,7.532768798828125,-0.19822877645492554,0.28185415267944336,0.01544815581291914
1761140367336827600,7.54282763671875,-0.2238132208585739,0.31347277760505676,0.06748872250318527
1761140367346888000,7.552887939453125,-0.24831970036029816,0.3341887295246124,0.15555913746356964
1761140367356947000,7.562947021484375,-0.2596634030342102,0.3556130528450012,0.2902061641216278
1761140367367006700,7.5730068359375,-0.25669315457344055,0.3884682059288025,0.4599166810512543
1761140367377066000,7.58306591796875,-0.24767115712165833,0.4292824864387512,0.6195194125175476
1761140367387126000,7.5931259765625,-0.22070175409317017,0.46609318256378174,0.7441714406013489
1761140367397184800,7.603184814453125,-0.17995165288448334,0.45709702372550964,0.8447973728179932
1761140367407244800,7.613244873046875,-0.15232817828655243,0.40112167596817017,0.9162911176681519
1761140367417303800,7.6233037109375,-0.13314037024974823,0.3176158666610718,0.9523982405662537
1761140367427363800,7.63336376953125,-0.11057096719741821,0.17841418087482452,0.9276987314224243
1761140367437422800,7.6434228515625,-0.10724947601556778,-0.005189190618693829,0.8484851121902466
1761140367447483000,7.65348291015625,-0.13566811382770538,-0.19036009907722473,0.7170034646987915
1761140367457542000,7.6635419921875,-0.1951514184474945,-0.3582460284233093,0.5435059666633606
1761140367467601700,7.6736015625,-0.26951825618743896,-0.46682634949684143,0.33509841561317444
1761140367477661000,7.683660888671875,-0.335824579000473,-0.4873718321323395,0.12885496020317078
1761140367487721000,7.693720947265625,-0.3869122266769409,-0.431453675031662,-0.057381510734558105
1761140367497780000,7.703780029296875,-0.4278154671192169,-0.32446783781051636,-0.19882385432720184
1761140367507840000,7.713840087890625,-0.4701564610004425,-0.18107089400291443,-0.2883964776992798
1761140367517898800,7.723898681640625,-0.5098046064376831,-0.07822705805301666,-0.3308185040950775
1761140367527958800,7.733958740234375,-0.5383450388908386,-0.021587848663330078,-0.32510507106781006
1761140367538017800,7.744017822265625,-0.5594724416732788,-0.03630287945270538,-0.2820633351802826
1761140367548077800,7.754077880859375,-0.5577828288078308,-0.06821609288454056,-0.20238518714904785
1761140367558136800,7.76413671875,-0.540967583656311,-0.07413443177938461,-0.10768984258174896
1761140367568196900,7.77419677734375,-0.5125168561935425,-0.04210401326417923,-0.019214259460568428
1761140367578256000,7.784255859375,-0.4775221645832062,0.023415878415107727,0.034415148198604584
1761140367588316000,7.79431591796875,-0.44363924860954285,0.07847721874713898,0.047958821058273315
1761140367598375000,7.804375,-0.4037299156188965,0.12114985287189484,0.023038560524582863
1761140367608435000,7.81443505859375,-0.35450464487075806,0.14911167323589325,-0.02952306717634201
1761140367618493700,7.82449365234375,-0.2964690327644348,0.14484767615795135,-0.08845269680023193
1761140367628554000,7.834553955078125,-0.23216921091079712,0.12069153040647507,-0.13386717438697815
1761140367638612700,7.84461279296875,-0.17687346041202545,0.09978039562702179,-0.16023539006710052
1761140367648672800,7.8546728515625,-0.1282157301902771,0.0929650291800499,-0.155366912484169
1761140367658732000,7.86473193359375,-0.09802107512950897,0.07902178168296814,-0.13243256509304047
1761140367668791800,7.874791748046875,-0.06286198645830154,0.04463907331228256,-0.09798016399145126
1761140367678850800,7.884850830078125,-0.018446581438183784,0.0003648214042186737,-0.046310313045978546
1761140367688910800,7.894910888671875,0.009718838147819042,-0.023149749264121056,0.027672234922647476
1761140367698971000,7.904970947265625,-0.003547166008502245,-0.009508505463600159,0.10861794650554657
1761140367709030000,7.91502978515625,-0.03036787174642086,0.035819072276353836,0.1903802901506424
1761140367719089700,7.925089599609375,-0.045196618884801865,0.08951426297426224,0.2586410939693451
1761140367729149000,7.93514892578125,-0.03676856681704521,0.09878793358802795,0.2963181138038635
1761140367739209000,7.945208984375,-0.023661820217967033,0.07038825005292892,0.30848583579063416
1761140367749267700,7.955267822265625,-0.009695137850940228,0.018612932413816452,0.30767035484313965
1761140367759328000,7.965327880859375,-0.000795119209215045,-0.04597218334674835,0.28119775652885437
1761140367769386800,7.97538671875,-0.003415842540562153,-0.07009635120630264,0.24934335052967072
1761140367779446800,7.98544677734375,-0.007215374149382114,-0.038954414427280426,0.21033337712287903
1761140367789506000,7.995506103515625,-0.009946263395249844,0.015398720279335976,0.1688506156206131
1761140367799565800,8.00556591796875,-0.015532509423792362,0.08060222864151001,0.12744857370853424
1761140367809624800,8.015624755859376,-0.0346682034432888,0.11413556337356567,0.07508334517478943
1761140367819684900,8.025684814453125,-0.055916499346494675,0.11152832955121994,0.030227454379200935
1761140367829743900,8.035743896484375,-0.07728023827075958,0.09670314937829971,-0.0009676649933680892
1761140367839804000,8.045803955078124,-0.09497082233428955,0.06642620265483856,-0.0333264023065567
1761140367849863000,8.05586279296875,-0.10826458781957626,0.008450308814644814,-0.07267589867115021
1761140367859923000,8.0659228515625,-0.12426379323005676,-0.04638071358203888,-0.10998997837305069
1761140367869981700,8.075981689453124,-0.1369912177324295,-0.10108271986246109,-0.14945265650749207
1761140367880041700,8.086041748046876,-0.14783960580825806,-0.1502758413553238,-0.18735504150390625
1761140367890101000,8.09610107421875,-0.1380532830953598,-0.1669653356075287,-0.21580399572849274
1761140367900160800,8.106160888671875,-0.10959075391292572,-0.14943641424179077,-0.21597416698932648
1761140367910220000,8.116219970703124,-0.07665492594242096,-0.10723644495010376,-0.19690078496932983
1761140367920279800,8.12627978515625,-0.050854749977588654,-0.07052849233150482,-0.17324765026569366
1761140367930338800,8.1363388671875,-0.01904570870101452,-0.03915077820420265,-0.13430698215961456
1761140367940398800,8.14639892578125,0.01692161336541176,-0.012403050437569618,-0.08778661489486694
1761140367950457900,8.156457763671876,0.052433885633945465,-0.017090357840061188,-0.028692109510302544
1761140367960518000,8.166517822265625,0.08522405475378036,-0.05906204134225845,0.03927735239267349
1761140367970576600,8.17657666015625,0.11195855587720871,-0.09559734165668488,0.09195967763662338
1761140367980637000,8.186636962890624,0.135707288980484,-0.1260543167591095,0.11125960946083069
1761140367990696000,8.196696044921875,0.14793384075164795,-0.13665463030338287,0.09335146844387054
1761140368000755700,8.206755615234375,0.16586756706237793,-0.08254159241914749,0.06411794573068619
1761140368010815000,8.21681494140625,0.18060027062892914,0.049941472709178925,0.051667168736457825
1761140368020874800,8.226874755859376,0.1851084679365158,0.1780744045972824,0.061414070427417755
1761140368030933800,8.236933837890625,0.17439503967761993,0.22805529832839966,0.0714711844921112
1761140368040994000,8.246994140625,0.15581390261650085,0.20671485364437103,0.0636843666434288
1761140368051052800,8.257052734375,0.13992176949977875,0.1283639818429947,0.03639422357082367
1761140368061112800,8.26711279296875,0.11559698730707169,0.06136497110128403,-0.002996056107804179
1761140368071171800,8.277171875,0.08304472267627716,-0.0019254207145422697,-0.04486135393381119
1761140368081232000,8.28723193359375,0.03795740008354187,-0.12438103556632996,-0.11690226197242737
1761140368091291000,8.297290771484375,-0.0033821682445704937,-0.2990659475326538,-0.2135601043701172
1761140368101351000,8.307350830078125,-0.022164644673466682,-0.4692389965057373,-0.31971263885498047
1761140368111410000,8.317409912109374,-0.019938986748456955,-0.5463282465934753,-0.401834100484848
1761140368121469700,8.3274697265625,0.009592007845640182,-0.5171237587928772,-0.4434499740600586
1761140368131529000,8.337529052734375,0.0362505242228508,-0.41802433133125305,-0.4351833462715149
1761140368141589000,8.347589111328125,0.04739425703883171,-0.28054237365722656,-0.37463584542274475
1761140368151648800,8.357648681640624,0.05700201541185379,-0.12809309363365173,-0.25128665566444397
1761140368161707800,8.367707763671875,0.11399339139461517,0.0012446613982319832,-0.07773751765489578
1761140368171768000,8.37776806640625,0.15995636582374573,0.05999767780303955,0.1008094996213913
1761140368181826800,8.387826904296874,0.16402408480644226,0.005605809390544891,0.23246179521083832
1761140368191886800,8.397886962890626,0.12058952450752258,-0.07732396572828293,0.29775986075401306
1761140368201945900,8.40794580078125,0.07073195278644562,-0.13203753530979156,0.3017423450946808
1761140368212006000,8.418005859375,0.022695064544677734,-0.10994122922420502,0.25464433431625366
1761140368222065000,8.42806494140625,-0.0061730677261948586,-0.020787915214896202,0.15703999996185303
1761140368232125000,8.438125,-0.0014064231654629111,0.11391416937112808,0.03835331276059151
1761140368242184000,8.448183837890625,0.03219068422913551,0.23701240122318268,-0.07663080096244812
1761140368252243700,8.45824365234375,0.07760592550039291,0.32328855991363525,-0.1611855924129486
1761140368262303000,8.468302978515625,0.11794189363718033,0.3655047118663788,-0.207179456949234
1761140368272363000,8.478363037109375,0.14973421394824982,0.37616783380508423,-0.21796341240406036
1761140368282421800,8.488421875,0.16734862327575684,0.3869384527206421,-0.2165764421224594
1761140368292481800,8.498481689453126,0.16489385068416595,0.3592537045478821,-0.225641131401062
1761140368302540800,8.508540771484375,0.12150536477565765,0.3091048002243042,-0.23568230867385864
1761140368312600800,8.518600830078125,0.060704171657562256,0.2284613847732544,-0.25363296270370483
1761140368322660000,8.52866015625,-0.012102926149964333,0.17165429890155792,-0.2696444094181061
1761140368332719900,8.538719970703125,-0.09349427372217178,0.1705007553100586,-0.2937934696674347
1761140368342779000,8.54877880859375,-0.17037680745124817,0.19980672001838684,-0.3233897089958191
1761140368352838700,8.558838623046874,-0.21088279783725739,0.19757767021656036,-0.3662848174571991
1761140368362898000,8.56889794921875,-0.1798710823059082,0.16456538438796997,-0.419415682554245
1761140368372958000,8.5789580078125,-0.13656669855117798,0.07582809776067734,-0.4770793616771698
1761140368383016700,8.5890166015625,-0.08030716329813004,-0.0012230132706463337,-0.5005614757537842
1761140368393077000,8.599076904296876,-0.03074299544095993,0.007960797287523746,-0.5015898942947388
1761140368403135700,8.6091357421875,-0.016521450132131577,0.0858880877494812,-0.4993203580379486
1761140368413195800,8.61919580078125,-0.0188151765614748,0.19783911108970642,-0.49433407187461853
1761140368423255000,8.629255126953124,-0.020790178328752518,0.2648807168006897,-0.47271692752838135
1761140368433314800,8.639314697265625,-0.035893432796001434,0.24116335809230804,-0.4285534918308258
1761140368443373800,8.649373779296875,-0.050049733370542526,0.15733051300048828,-0.3521343469619751
1761140368453433900,8.659433837890624,-0.06576311588287354,0.06165187060832977,-0.25252765417099
1761140368463492900,8.669492919921876,-0.0685434564948082,-0.03809177130460739,-0.14722944796085358
1761140368473553000,8.679552978515625,-0.07056458294391632,-0.10834621638059616,-0.04275423660874367
1761140368483612000,8.68961181640625,-0.0597340390086174,-0.1237773671746254,0.048785798251628876
1761140368493672000,8.699671875,-0.030867312103509903,-0.10382965952157974,0.13363078236579895
1761140368503730700,8.709730712890625,0.0062435707077383995,-0.06758829951286316,0.1954296976327896
1761140368513790700,8.719790771484375,0.05128460377454758,0.0038168984465301037,0.2482631504535675
1761140368523850000,8.72985009765625,0.09433247148990631,0.06586828827857971,0.27080732583999634
1761140368533909800,8.73990966796875,0.11626215279102325,0.10403703898191452,0.2573951184749603
1761140368543969000,8.749968994140625,0.10856721550226212,0.12221125513315201,0.22473490238189697
1761140368554028800,8.76002880859375,0.07524128258228302,0.12030491232872009,0.1784089058637619
1761140368564087800,8.770087890625,0.027053244411945343,0.09010066837072372,0.12550334632396698
1761140368574147800,8.78014794921875,-0.029357951134443283,0.05406230315566063,0.06652764230966568
1761140368584206800,8.790206787109375,-0.10387053340673447,0.041163548827171326,-0.00679850485175848
1761140368594267000,8.800266845703124,-0.19073350727558136,0.029480701312422752,-0.08235683292150497
1761140368604326000,8.810325927734375,-0.26262420415878296,0.015612024813890457,-0.1703716367483139
1761140368614386000,8.820385986328125,-0.3155437111854553,0.02729523554444313,-0.25910040736198425
1761140368624445000,8.83044482421875,-0.3369866609573364,0.07305366545915604,-0.34457457065582275
1761140368634504700,8.840504638671876,-0.3307928740978241,0.1373208910226822,-0.43226903676986694
1761140368644564000,8.85056396484375,-0.29852068424224854,0.19508831202983856,-0.5110251307487488
1761140368654623700,8.860623779296875,-0.23887138068675995,0.2986525297164917,-0.5734435319900513
1761140368664682800,8.870682861328126,-0.17309929430484772,0.3914322853088379,-0.6289898753166199
1761140368674743000,8.880742919921875,-0.08520958572626114,0.47662147879600525,-0.6826202869415283
1761140368684801800,8.8908017578125,-0.03356131166219711,0.4546903371810913,-0.717078447341919
1761140368694861800,8.90086181640625,0.0035688942298293114,0.3805919289588928,-0.7081690430641174
1761140368704920800,8.9109208984375,0.022209158167243004,0.25309550762176514,-0.6353939175605774
1761140368714980900,8.92098095703125,-0.002096812939271331,0.12315771728754044,-0.5051977634429932
1761140368725039900,8.931039794921874,-0.05668815225362778,-0.0261196531355381,-0.331335186958313
1761140368735100000,8.941099853515626,-0.10808151215314865,-0.16261838376522064,-0.1464497148990631
1761140368745159000,8.951158935546875,-0.14385735988616943,-0.24467703700065613,0.008613646030426025
1761140368755220000,8.961219970703125,-0.17155402898788452,-0.2809614837169647,0.10176307708024979
1761140368765278700,8.97127880859375,-0.18540219962596893,-0.2975790798664093,0.1389237642288208
1761140368775339000,8.981339111328126,-0.1906341314315796,-0.2536603808403015,0.14442116022109985
1761140368785397800,8.991397705078125,-0.17413905262947083,-0.20234765112400055,0.13201375305652618
1761140368795457800,9.001457763671874,-0.13582973182201385,-0.11468522250652313,0.1035415381193161
1761140368805517000,9.01151708984375,-0.09481997787952423,-0.021729987114667892,0.05726272612810135
1761140368815576800,9.021576904296875,-0.05483972653746605,0.08669275045394897,-0.0096427695825696
1761140368825636900,9.031636962890625,-0.035204771906137466,0.18919222056865692,-0.08701984584331512
1761140368835695600,9.041695556640626,-0.030995814129710197,0.22728316485881805,-0.17475296556949615
1761140368845756000,9.051755859375,-0.012172060087323189,0.1793140470981598,-0.23373958468437195
1761140368855815000,9.06181494140625,-0.0014548187609761953,0.07501567900180817,-0.2392350286245346
1761140368865874700,9.071874755859374,0.012104133144021034,-0.04744259640574455,-0.19927296042442322
1761140368875934000,9.081933837890626,0.031539030373096466,-0.12273973226547241,-0.13604743778705597
1761140368885994000,9.091993896484375,0.0663105919957161,-0.17111419141292572,-0.06889849901199341
1761140368896052700,9.102052734375,0.12799231708049774,-0.18204371631145477,0.0028565714601427317
1761140368906113000,9.112113037109374,0.18397729098796844,-0.1679726392030716,0.07126518338918686
1761140368916171800,9.122171875,0.25066760182380676,-0.1436290293931961,0.13310834765434265
1761140368926231800,9.132231689453125,0.2926720380783081,-0.1383724808692932,0.1734216809272766
1761140368936290800,9.142290771484374,0.3118894398212433,-0.1598457247018814,0.19555677473545074
1761140368946350800,9.152350830078126,0.3033643960952759,-0.18423841893672943,0.19219693541526794
1761140368956409900,9.162409912109375,0.29018595814704895,-0.17032021284103394,0.17944806814193726
1761140368966470000,9.172469970703125,0.2749374806880951,-0.12976504862308502,0.16648221015930176
1761140368976529000,9.18252880859375,0.2539260983467102,-0.06280295550823212,0.16116182506084442
1761140368986589000,9.1925888671875,0.23569808900356293,0.015849247574806213,0.16891507804393768
1761140368996648000,9.20264794921875,0.20271164178848267,0.0569029375910759,0.18829916417598724
1761140369006708000,9.2127080078125,0.164431631565094,0.04380045086145401,0.20312577486038208
1761140369016766700,9.2227666015625,0.12172629684209824,-0.03969897702336311,0.2007787972688675
1761140369026826800,9.23282666015625,0.0742969959974289,-0.16186963021755219,0.16631269454956055
1761140369036885800,9.2428857421875,0.025993390008807182,-0.2522411048412323,0.11110953241586685
1761140369046945800,9.25294580078125,-0.0006805638549849391,-0.28449225425720215,0.05495065823197365
1761140369057005000,9.263005126953125,-0.00009340082760900259,-0.248020201921463,0.020921891555190086
1761140369067064800,9.27306494140625,0.0052433074451982975,-0.1752794235944748,0.010604006238281727
1761140369077123800,9.283123779296876,0.008677986450493336,-0.0654757022857666,0.01744806580245495
1761140369087184000,9.293183837890625,0.01926485076546669,0.07787267118692398,0.031622737646102905
1761140369097243000,9.303242919921875,0.021869881078600883,0.16732540726661682,0.05301445350050926
1761140369107303000,9.313302978515624,0.02713601477444172,0.1857566237449646,0.07289281487464905
1761140369117361700,9.323361572265625,0.011817927472293377,0.13090729713439941,0.0748334527015686
1761140369127422000,9.333421875,-0.02765704318881035,0.05312168225646019,0.06965653598308563
1761140369137480700,9.343480712890624,-0.08343986421823502,-0.002411973662674427,0.04715290293097496
1761140369147540700,9.353540771484376,-0.14076945185661316,-0.06831402331590652,-0.004994187504053116
1761140369157600000,9.36360009765625,-0.16037702560424805,-0.11236763000488281,-0.09970682859420776
1761140369167659800,9.37365966796875,-0.13475021719932556,-0.10760509967803955,-0.18714720010757446
1761140369177718800,9.38371875,-0.08939941227436066,-0.08534690737724304,-0.2527351379394531
1761140369187779000,9.393779052734375,-0.05326404049992561,-0.05561111494898796,-0.29976019263267517
1761140369197837800,9.403837890625,-0.03222675994038582,-0.0580863319337368,-0.3308509290218353
1761140369207897900,9.41389794921875,-0.015519952401518822,-0.08198181539773941,-0.3427736461162567
1761140369217956900,9.423956787109375,-0.009417862631380558,-0.10332060605287552,-0.33571112155914307
1761140369228017000,9.434016845703125,-0.018829207867383957,-0.1161796823143959,-0.3104496896266937
1761140369238076000,9.444075927734374,-0.0350191593170166,-0.11484777927398682,-0.27647700905799866
1761140369248135700,9.4541357421875,-0.03295760601758957,-0.09284234791994095,-0.23863857984542847
1761140369258195000,9.46419482421875,-0.02877786010503769,-0.08602450788021088,-0.19519339501857758
1761140369268254700,9.474254638671875,-0.021099166944622993,-0.08430171012878418,-0.14134535193443298
1761140369278314000,9.48431396484375,0.00633386243134737,-0.08829522132873535,-0.07002869248390198
1761140369288374000,9.4943740234375,0.06015048548579216,-0.07410882413387299,0.004444209858775139
1761140369298432800,9.504432861328125,0.10160606354475021,-0.034566525369882584,0.07554253190755844
1761140369308492800,9.514492919921874,0.12630555033683777,-0.004561220295727253,0.1291370391845703
1761140369318551800,9.5245517578125,0.11743417382240295,0.024582616984844208,0.14766278862953186
1761140369328611800,9.53461181640625,0.0931626558303833,0.0553828701376915,0.1419290006160736
1761140369338670800,9.5446708984375,0.040296025574207306,0.08563455194234848,0.11559180915355682
1761140369348731000,9.55473095703125,-0.022671755403280258,0.11868651211261749,0.08169136941432953
1761140369358790000,9.564789794921875,-0.07268424332141876,0.13391463458538055,0.04258856922388077
1761140369368849700,9.574849609375,-0.08234379440546036,0.12272695451974869,0.017236078158020973
1761140369378909000,9.584908935546874,-0.06660689413547516,0.102496437728405,0.014694432727992535
1761140369388969000,9.594968994140626,-0.051175206899642944,0.09008397161960602,0.0284200981259346
1761140369399027700,9.60502783203125,-0.03210574761033058,0.10351639240980148,0.049525804817676544
1761140369409088000,9.615087890625,-0.0070749614387750626,0.12472846359014511,0.06740041077136993
1761140369419146800,9.625146728515626,0.01979341357946396,0.13566681742668152,0.06758832931518555
1761140369429206800,9.635206787109375,0.041798580437898636,0.10441596806049347,0.05546509474515915
1761140369439266000,9.64526611328125,0.04530879482626915,0.036201465874910355,0.027558695524930954
1761140369449325800,9.655325927734374,0.03386039659380913,-0.027301078662276268,-0.002801074180752039
1761140369459384800,9.665384765625,0.011340688914060593,-0.06640657782554626,-0.03738496080040932
1761140369469444900,9.67544482421875,-0.005044409539550543,-0.06768516451120377,-0.07747006416320801
1761140369479504000,9.68550390625,-0.01341665256768465,-0.042198389768600464,-0.11288873106241226
1761140369489564000,9.69556396484375,-0.011389454826712608,-0.007426027674227953,-0.1416436731815338
1761140369499623000,9.705622802734375,0.001895433641038835,0.023069702088832855,-0.16203556954860687
1761140369509683000,9.715682861328125,0.022616956382989883,0.035101599991321564,-0.16740930080413818
1761140369519741700,9.72574169921875,0.047552987933158875,0.00507258391007781,-0.1527237743139267
1761140369529801700,9.7358017578125,0.06888464093208313,-0.031160522252321243,-0.1231435164809227
1761140369539861000,9.745861083984375,0.08530997484922409,-0.0758247971534729,-0.08251452445983887
1761140369549920800,9.755920654296874,0.10100371390581131,-0.09474895894527435,-0.03898755833506584
1761140369559980000,9.76597998046875,0.11829304695129395,-0.06333232671022415,0.009113160893321037
1761140369570039800,9.776039794921875,0.12707960605621338,0.003834993112832308,0.050016120076179504
1761140369580098800,9.786098876953124,0.14034180343151093,0.0748441144824028,0.0911898985505104
1761140369590158800,9.796158935546876,0.16140341758728027,0.13667818903923035,0.1339472234249115
1761140369600217900,9.8062177734375,0.18729496002197266,0.17486804723739624,0.18485893309116364
1761140369610278000,9.81627783203125,0.21567519009113312,0.17682521045207977,0.22585457563400269
1761140369620337000,9.8263369140625,0.24412380158901215,0.15264518558979034,0.255282998085022
1761140369630397000,9.83639697265625,0.2772543132305145,0.13540947437286377,0.2649276554584503
1761140369640456000,9.8464560546875,0.30952250957489014,0.11845897883176804,0.2548840641975403
1761140369650515700,9.856515625,0.3570305109024048,0.08769478648900986,0.241751030087471
1761140369660575000,9.866574951171875,0.4041106700897217,0.009957289323210716,0.23612090945243835
1761140369670634800,9.876634765625,0.44897934794425964,-0.2073047161102295,0.2736930549144745
1761140369680693800,9.88669384765625,0.4236171543598175,-0.382884681224823,0.34518197178840637
1761140369690754000,9.896754150390626,0.3445356488227844,-0.37344086170196533,0.45199552178382874
1761140369700812800,9.906812744140625,0.21868205070495605,-0.2874947190284729,0.5530608892440796
1761140369710872800,9.916872802734375,0.07046329230070114,-0.2380821704864502,0.5869179368019104
1761140369720931800,9.926931884765626,-0.05150451138615608,-0.25392279028892517,0.5559812784194946
1761140369730991900,9.936991943359375,-0.07835210859775543,-0.2859281003475189,0.4546442925930023
1761140369741051000,9.94705078125,-0.036824699491262436,-0.2761524021625519,0.33169180154800415
1761140369751109000,9.957109130859376,0.0514226034283638,-0.2210252285003662,0.21223729848861694
1761140369761168100,9.967168212890625,0.1583208441734314,-0.1207929402589798,0.12269985675811768
1761140369771228200,9.977228271484375,0.24913649260997772,0.022253690287470818,0.06601447612047195
1761140369781287200,9.987287109375,0.3135485053062439,0.15661901235580444,0.034486737102270126
1761140369791347000,9.997346923828125,0.3429948091506958,0.24741095304489136,0.013961222022771835
1761140369801406200,10.00740625,0.34763994812965393,0.2792293429374695,0.0056815058924257755
1761140369811466200,10.01746630859375,0.3259514272212982,0.28754502534866333,0.01038784347474575
1761140369821525000,10.02752490234375,0.27288955450057983,0.2841596007347107,0.018536223098635674
1761140369831585300,10.037585205078125,0.19693219661712646,0.2539185881614685,0.03830140829086304
1761140369841644000,10.04764404296875,0.10853303968906403,0.2221987545490265,0.060665249824523926
1761140369851704000,10.0577041015625,0.03496720641851425,0.20670315623283386,0.10482685267925262
1761140369861763300,10.067763427734375,-0.03466615453362465,0.18105189502239227,0.13683313131332397
1761140369871823000,10.077822998046875,-0.07257065176963806,0.154325470328331,0.17379993200302124
1761140369881882000,10.087882080078124,-0.07994753122329712,0.1400100439786911,0.21491491794586182
1761140369891942100,10.097942138671876,-0.08211082220077515,0.14725357294082642,0.24436548352241516
1761140369902001200,10.108001220703125,-0.10048726946115494,0.20281964540481567,0.2507716119289398
1761140369912061200,10.118061279296874,-0.13621917366981506,0.2453511357307434,0.234224334359169
1761140369922120200,10.1281201171875,-0.17324550449848175,0.2694292366504669,0.22382177412509918
1761140369932180200,10.13818017578125,-0.210959330201149,0.306293249130249,0.19657577574253082
1761140369942239000,10.148239013671875,-0.23131997883319855,0.3305841088294983,0.13152840733528137
1761140369952299000,10.158299072265624,-0.23352666199207306,0.3601449429988861,0.034171223640441895
1761140369962358300,10.168358154296875,-0.21884621679782867,0.3756687343120575,-0.07461433112621307
1761140369972418000,10.17841796875,-0.18615324795246124,0.3591206669807434,-0.148855522274971
1761140369982477300,10.188477294921874,-0.15199941396713257,0.32254713773727417,-0.18019960820674896
1761140369992537300,10.198537353515626,-0.13113701343536377,0.2438632696866989,-0.18019001185894012
1761140370002596000,10.20859619140625,-0.12517744302749634,0.1416003257036209,-0.15740077197551727
1761140370012656000,10.21865625,-0.11872648447751999,0.02780265174806118,-0.14165616035461426
1761140370022715100,10.228715087890626,-0.10736962407827377,-0.10277969390153885,-0.14160595834255219
1761140370032775200,10.238775146484375,-0.08317267894744873,-0.19228878617286682,-0.17435592412948608
1761140370042834000,10.248833984375,-0.02297353371977806,-0.25740379095077515,-0.2153654843568802
1761140370052894200,10.258894287109374,0.05105781555175781,-0.31173866987228394,-0.2553856074810028
1761140370062953200,10.268953125,0.10374028235673904,-0.35679203271865845,-0.2719115614891052
1761140370073013000,10.279012939453125,0.12467193603515625,-0.41650065779685974,-0.27224764227867126
1761140370083072300,10.289072265625,0.12140336632728577,-0.4621863067150116,-0.2732484042644501
1761140370093132300,10.29913232421875,0.08889948576688766,-0.4201730787754059,-0.2743975520133972
1761140370103191000,10.30919091796875,0.020821573212742805,-0.341467022895813,-0.2925323247909546
1761140370113251300,10.319251220703125,-0.05582180991768837,-0.24442225694656372,-0.30569154024124146
1761140370123310000,10.32931005859375,-0.12455832958221436,-0.13477879762649536,-0.28289854526519775
1761140370133370000,10.3393701171875,-0.17447474598884583,-0.057940468192100525,-0.20164790749549866
1761140370143429000,10.34942919921875,-0.19826072454452515,-0.01859622448682785,-0.06402678787708282
1761140370153489200,10.3594892578125,-0.1919700801372528,-0.004953915718942881,0.10131343454122543
1761140370163548200,10.369548095703125,-0.17094005644321442,-0.01255774311721325,0.24471040070056915
1761140370173608200,10.379608154296875,-0.1461194008588791,-0.026968374848365784,0.3360786437988281
1761140370183667200,10.389667236328124,-0.12777231633663177,-0.028620252385735512,0.36419549584388733
1761140370193727200,10.399727294921876,-0.11548981815576553,-0.02693154104053974,0.34102413058280945
1761140370203786200,10.4097861328125,-0.10919460654258728,-0.003948819357901812,0.29836487770080566
1761140370213846300,10.41984619140625,-0.0958724096417427,0.024680428206920624,0.23992207646369934
1761140370223905000,10.429905029296876,-0.08211065828800201,0.04002034664154053,0.17716637253761292
1761140370233965000,10.439965087890625,-0.08913208544254303,0.059606827795505524,0.1069963350892067
1761140370244024000,10.450024169921875,-0.10250847786664963,0.07308337837457657,0.05830994248390198
1761140370254084000,10.460083984375,-0.12144967913627625,0.08445800840854645,0.0301723163574934
1761140370264143000,10.47014306640625,-0.14027033746242523,0.07888554036617279,0.023600490763783455
1761140370274203100,10.480203125,-0.1650816798210144,0.03179498761892319,0.03305497765541077
1761140370284262100,10.49026220703125,-0.18463614583015442,-0.03704644739627838,0.026807958260178566
1761140370294322200,10.500322265625,-0.18854033946990967,-0.09314513951539993,-0.003923588432371616
1761140370304381200,10.510381103515625,-0.16248592734336853,-0.13077190518379211,-0.0618739016354084
1761140370314441200,10.520441162109375,-0.11515356600284576,-0.16389043629169464,-0.12567685544490814
1761140370324500000,10.5305,-0.06903918087482452,-0.14801794290542603,-0.17971186339855194
1761140370334560300,10.540560302734375,-0.030734935775399208,-0.12595391273498535,-0.21705709397792816
1761140370344619000,10.550618896484375,0.0012233799789100885,-0.10703514516353607,-0.24946165084838867
1761140370354679000,10.560678955078124,0.02038109488785267,-0.08854082226753235,-0.260942280292511
1761140370364738300,10.57073828125,0.02620657905936241,-0.07212711125612259,-0.2396148294210434
1761140370374798000,10.580798095703125,0.026955991983413696,-0.038279663771390915,-0.18747013807296753
1761140370384857000,10.590857177734375,0.01613774336874485,-0.02642563171684742,-0.11082262545824051
1761140370394917400,10.60091748046875,-0.009066680446267128,-0.000182311050593853,-0.02705875039100647
1761140370404976000,10.61097607421875,-0.028560934588313103,0.004980879370123148,0.05003047734498978
1761140370415036200,10.6210361328125,-0.03619568422436714,-0.032725486904382706,0.11639059334993362
1761140370425095200,10.63109521484375,-0.04901949688792229,-0.060935039073228836,0.1728462427854538
1761140370435155200,10.6411552734375,-0.04908500984311104,-0.07357413321733475,0.22533129155635834
1761140370445214000,10.6512138671875,-0.03799712285399437,-0.07251247763633728,0.2538908123970032
1761140370455274000,10.66127392578125,-0.028505083173513412,-0.031062506139278412,0.27005085349082947
1761140370465333200,10.671333251953126,-0.015377627685666084,0.02401384897530079,0.28643599152565
1761140370475393000,10.68139306640625,-0.010666228830814362,0.050411101430654526,0.28316694498062134
1761140370485452300,10.691452392578125,-0.014238711446523666,0.0369531475007534,0.27544379234313965
1761140370495512300,10.70151220703125,-0.03338976949453354,0.028579106554389,0.25567248463630676
1761140370505571000,10.711571044921875,-0.05842423439025879,0.026669654995203018,0.2196888029575348
1761140370515631000,10.721631103515625,-0.08702978491783142,0.029891278594732285,0.16913001239299774
1761140370525690000,10.731690185546874,-0.11971855163574219,0.04144838824868202,0.11317837983369827
1761140370535750100,10.741750244140626,-0.14291468262672424,0.04094957932829857,0.06212052330374718
1761140370545809200,10.75180908203125,-0.16399416327476501,0.025855671614408493,0.011491355486214161
1761140370555869200,10.761869140625,-0.1799081414937973,0.009257785975933075,-0.03276292234659195
1761140370565928200,10.77192822265625,-0.18482014536857605,0.03223595395684242,-0.0665188655257225
1761140370575988000,10.781988037109375,-0.1802688091993332,0.08590716868638992,-0.12507033348083496
1761140370586047200,10.792047119140625,-0.17991024255752563,0.20672333240509033,-0.2075406014919281
1761140370596107300,10.802107177734374,-0.17316365242004395,0.3646855056285858,-0.3131895363330841
1761140370606166000,10.812166015625,-0.1571016013622284,0.48726367950439453,-0.4195859134197235
1761140370616226300,10.822226318359375,-0.11328967660665512,0.5612614750862122,-0.5216635465621948
1761140370626285000,10.83228515625,-0.05148695781826973,0.5607678890228271,-0.5949611067771912
1761140370636345000,10.842344970703126,-0.020368454977869987,0.5089744329452515,-0.6375961899757385
1761140370646404000,10.852404052734375,-0.021849576383829117,0.4698229730129242,-0.6291041970252991
1761140370656464100,10.862464111328125,-0.054703932255506516,0.43969330191612244,-0.5729650259017944
1761140370666523100,10.872523193359376,-0.10377338528633118,0.4106375277042389,-0.4786859154701233
1761140370676583200,10.882583251953125,-0.14040251076221466,0.3679838180541992,-0.373989075422287
1761140370686642200,10.89264208984375,-0.15100952982902527,0.2950742840766907,-0.2713643014431
1761140370696702200,10.9027021484375,-0.14301738142967224,0.23698195815086365,-0.1846320629119873
1761140370706761200,10.91276123046875,-0.11349143087863922,0.2469642162322998,-0.0979737937450409
1761140370716821200,10.9228212890625,-0.06339497864246368,0.2934914827346802,-0.0448935367166996
1761140370726880000,10.9328798828125,-0.00027576752472668886,0.28904029726982117,-0.01884073205292225
1761140370736940000,10.94293994140625,0.05541519448161125,0.27372366189956665,0.02436825819313526
1761140370746999300,10.952999267578125,0.08660618215799332,0.30189085006713867,0.09380383789539337
1761140370757059000,10.96305908203125,0.08314354717731476,0.3006029427051544,0.1629629284143448
1761140370767118000,10.9731181640625,0.09407063573598862,0.3095499575138092,0.24700573086738586
1761140370777178000,10.98317822265625,0.0878090113401413,0.28826889395713806,0.3185725808143616
1761140370787236900,10.99323681640625,0.06798914819955826,0.1980358064174652,0.35156726837158203
1761140370797297000,11.003296875,0.029056929051876068,0.07827264815568924,0.34815388917922974
1761140370807356200,11.013356201171876,-0.011856874451041222,-0.002014565747231245,0.3218310475349426
1761140370817416000,11.023416015625,-0.03880380466580391,-0.004657220561057329,0.28633803129196167
1761140370827475000,11.033474853515624,-0.0629647746682167,0.022840313613414764,0.2453298717737198
1761140370837534000,11.043533935546876,-0.06240231171250343,0.04345398023724556,0.2043539434671402
1761140370847594000,11.053593994140625,-0.02170873060822487,0.05870351195335388,0.19930694997310638
1761140370857653000,11.063653076171875,0.046143289655447006,0.04961574450135231,0.24353939294815063
1761140370867713000,11.073713134765624,0.09934956580400467,0.013705937191843987,0.31969785690307617
1761140370877772000,11.08377197265625,0.12560753524303436,-0.0512448325753212,0.3689895272254944
1761140370887831800,11.093831787109375,0.11589086800813675,-0.1028626412153244,0.3875313401222229
1761140370897891000,11.10389111328125,0.08094273507595062,-0.1268172413110733,0.3624826967716217
1761140370907951000,11.113951171875,0.03934648633003235,-0.13287903368473053,0.30923929810523987
1761140370918010000,11.124010009765625,0.004380513448268175,-0.1180926263332367,0.2554897964000702
1761140370928070100,11.134070068359375,-0.0036154557019472122,-0.07952214032411575,0.21793128550052643
1761140370938129000,11.14412890625,0.012806926853954792,-0.05875108391046524,0.1993192583322525
1761140370948189000,11.15418896484375,0.03542156517505646,-0.05575890839099884,0.21272249519824982
1761140370958248200,11.164248291015625,0.05415051057934761,-0.045264724642038345,0.2553112506866455
1761140370968308000,11.174307861328124,0.08714187890291214,-0.05254378542304039,0.28967899084091187
1761140370978367000,11.184366943359375,0.09943316876888275,-0.06382253766059875,0.30093589425086975
1761140370988427000,11.194427001953125,0.09602811187505722,-0.07907238602638245,0.29823940992355347
1761140370998486000,11.204486083984374,0.08559224754571915,-0.12073088437318802,0.2823885381221771
1761140371008546000,11.214546142578126,0.05681714415550232,-0.13195465505123138,0.256270170211792
1761140371018605000,11.22460498046875,0.016006330028176308,-0.10810311883687973,0.20792286098003387
1761140371028665000,11.2346650390625,-0.008803101256489754,-0.11464354395866394,0.16390202939510345
1761140371038723800,11.244723876953126,-0.029763244092464447,-0.04108969494700432,0.14018124341964722
1761140371048784100,11.2547841796875,-0.029904838651418686,0.08407074213027954,0.1330898106098175
1761140371058843100,11.264843017578125,-0.013094168156385422,0.21010296046733856,0.15252716839313507
1761140371068903000,11.27490283203125,0.007395157590508461,0.321193665266037,0.16894979774951935
1761140371078962200,11.284962158203125,0.05600450560450554,0.42199644446372986,0.18893948197364807
1761140371089022000,11.29502197265625,0.0783216580748558,0.5056752562522888,0.26101601123809814
1761140371099081000,11.3050810546875,0.05216648429632187,0.33419322967529297,0.2701336145401001
1761140371109141000,11.31514111328125,0.017594117671251297,-0.0032907328568398952,0.17500102519989014
1761140371119200000,11.325199951171875,-0.0002895417856052518,-0.20240329205989838,0.056187037378549576
1761140371129260000,11.335260009765625,-0.026451488956809044,-0.24882639944553375,-0.06561902910470963
1761140371139319000,11.345319091796876,-0.0656910389661789,-0.1307857781648636,-0.1402655690908432
1761140371149379000,11.355379150390625,-0.1017037183046341,-0.009583571925759315,-0.16689428687095642
1761140371159438000,11.36543798828125,-0.10941436886787415,0.06358305364847183,-0.15841291844844818
