time,seconds_elapsed,z,y,x
1761141613278967300,0.06796728515625,-0.20819968284368515,-0.35778263380676506,-0.5627317173566669
1761141613289026600,0.078026611328125,-0.3978156612485647,-0.46308892840892074,-0.5710891382701695
1761141613299085300,0.088085205078125,-0.5610334620714187,-0.4347159436225891,-0.4613950570378452
1761141613309144600,0.09814453125,-0.6618973903119564,-0.28862580321133136,-0.26584764275737105
1761141613319204600,0.10820458984375,-0.6289058058142661,-0.147369074305892,-0.029113135629147288
1761141613329263400,0.118263427734375,-0.3840338041335344,-0.06714169138073921,0.14406301849782466
1761141613339322600,0.128322509765625,0.019096330136060713,-0.06129881057143211,0.18876374548971653
1761141613349381400,0.13838134765625,0.3628296880632639,-0.12913812882751224,0.14838687304630874
1761141613359440600,0.148440673828125,0.5155214186966419,-0.18916414298415182,0.027634514443948863
1761141613369499400,0.15849951171875,0.5751818144112825,-0.1582861896395683,-0.09280965499207378
1761141613379559400,0.168559326171875,0.5744657750964164,-0.08250614151209593,-0.1792469984732568
1761141613389618400,0.178618408203125,0.5697586203187703,-0.07871434801369905,-0.12131247670315205
1761141613399677400,0.188677490234375,0.5503413876652717,-0.18519699291884897,-0.05395626578889787
1761141613409736400,0.198736328125,0.3979962785124779,-0.2200654772043228,-0.05847345095239579
1761141613419795500,0.20879541015625,0.12356734295785426,-0.1423141290038824,-0.06595197013951838
1761141613429855200,0.218855224609375,-0.16092764405906199,-0.032175299678742886,-0.06134447634406388
1761141613439914500,0.22891455078125,-0.3619938217610121,0.025723054799437522,-0.012715689188241957
1761141613449973200,0.23897314453125,-0.44636254227459427,0.06457856289446354,0.09893120661228895
1761141613460032500,0.249032470703125,-0.45148003141880033,0.10032587584108113,0.1396617878641933
1761141613470091300,0.25909130859375,-0.31001638176441193,0.16116174507588146,0.15882709158323705
1761141613480151300,0.2691513671875,-0.11458090342581272,0.16773440146446228,0.06262004923783242
1761141613490210600,0.27921044921875,0.09956570512354374,0.15214228005707264,-0.024047522802650927
1761141613500269300,0.289269287109375,0.3734586341053247,0.15944529654681683,0.04808481647223234
1761141613510328600,0.29932861328125,0.40645431025624273,0.19542495694458484,0.20516250710487363
1761141613520387300,0.30938720703125,0.13569383408129215,0.13613456358611584,0.36083862384390086
1761141613530446600,0.319446533203125,-0.09273439779877662,0.13521978682875632,0.3959189242491498
1761141613540506400,0.32950634765625,-0.1870253773897886,0.21459464457780122,0.27399240730088203
1761141613550565400,0.3395654296875,-0.14024258342683316,0.21010376289933919,0.16985248959697782
1761141613560624400,0.349624267578125,0.045319151151180265,0.018662614893913267,-0.004040105703659355
1761141613570683400,0.359683349609375,0.20253040503561495,-0.1132961243122816,-0.18355897992085665
1761141613580742400,0.369742431640625,0.18069325175881384,-0.17577537683993577,-0.2876568851139396
1761141613590802400,0.379802490234375,0.07953121735453605,-0.19178718496412037,-0.2271215697282925
1761141613600861400,0.389861328125,-0.025262451550364492,-0.05994008943885564,-0.0897760229172185
1761141613610920400,0.39992041015625,-0.11559037272930145,0.16045008967518806,0.05854585860148072
1761141613620979500,0.4099794921875,-0.19681670356392858,0.2979080108195543,0.3004759250788018
1761141613631038500,0.42003857421875,-0.23210312100052832,0.29937253041416406,0.4911420335911214
1761141613641098500,0.430098388671875,-0.209456989428401,0.2696706351116299,0.5026508677402511
1761141613651157500,0.440157470703125,-0.17107786667346953,0.2291542080670595,0.3666814681205898
1761141613661216500,0.450216552734375,0.00010404489636421203,0.0859536516174674,0.1401837293790653
1761141613671275300,0.460275146484375,0.17865443940758705,-0.06896160028427839,-0.16352971631623803
1761141613681334500,0.47033447265625,0.27128128517866135,-0.15219751737564802,-0.32040563729908317
1761141613691394600,0.48039453125,0.27829905498623847,-0.14166501744538545,-0.33021135732475665
1761141613701453600,0.49045361328125,0.1971831987887621,-0.1369485103175044,-0.2645147867184132
1761141613711512600,0.5005126953125,0.09747311675846576,-0.09287029913812875,-0.18339819986857472
1761141613721571300,0.5105712890625,-0.0947615197122097,-0.025993103912472722,-0.10749321018718182
1761141613731630600,0.520630615234375,-0.2707376798212528,0.07283318102061748,-0.0656833823312074
1761141613741690400,0.5306904296875,-0.29766426519155503,0.13152590074688195,-0.17312756574489174
1761141613751749600,0.54074951171875,-0.12936696914732457,0.16273790835142135,-0.41179450224041936
1761141613761808400,0.550808349609375,0.1412251647233963,0.1484884337246418,-0.5712495529962703
1761141613771867400,0.560867431640625,0.4292190997719764,0.0771741328343749,-0.6887631854057311
1761141613781926400,0.570926513671875,0.4860626845002174,0.04846007952541113,-0.6899904621783643
1761141613791986400,0.580986328125,0.37572014929652214,0.143446932426095,-0.5408847733382135
1761141613802045400,0.59104541015625,0.2806646150738001,0.3211918557733297,-0.317228212839365
1761141613812104400,0.6011044921875,0.23058628669679163,0.5493249040991067,-0.05086209916584193
1761141613822163500,0.61116357421875,0.27314474096298214,0.7766890138790011,0.1638089716490358
1761141613832222200,0.62122216796875,0.32623160350620745,0.8337316283106804,0.25652192480098457
1761141613842282200,0.6312822265625,0.3797843299955129,0.796911425435543,0.25983795401379467
1761141613852341500,0.641341552734375,0.19628654220998287,0.689160660290718,0.09848298792075365
1761141613862400300,0.651400146484375,0.06034428632557392,0.5452320818275213,-0.15058043756783007
1761141613872459500,0.66145947265625,0.053854924306273456,0.4015332204669714,-0.4543900005813688
1761141613882518300,0.671518310546875,-0.045260698962211604,0.2843041406199336,-0.6062943436967209
1761141613892578300,0.681578369140625,-0.40583530157506464,0.22837533264905213,-0.47907644234206526
1761141613902637300,0.69163720703125,-1.1300362955868244,0.28238866238743066,-0.18304105699397621
1761141613912696300,0.7016962890625,-1.9278361942946909,0.3566404780343175,-0.05683605900891125
1761141613922755300,0.71175537109375,-2.2258096715658904,0.6586348813846707,-0.11388568770326674
1761141613932814300,0.721814453125,-2.1558663667678832,0.8150698901996016,-0.22481245253570376
1761141613942874400,0.731874267578125,-2.150204687744379,0.9435828728660941,-0.4052125665668398
1761141613952933400,0.741933349609375,-1.9159756606310605,1.813863485895097,-0.8865431810438632
1761141613962992400,0.751992431640625,-2.4710288792490958,1.76180596639961,-0.6969434231214224
1761141613973051400,0.762051513671875,-2.1358359706521033,1.8887936391949653,-0.7712240264713763
1761141613983110400,0.7721103515625,-1.651337466728687,2.2107935964807868,-0.6856508986040949
1761141613993170200,0.782170166015625,-0.49236149238348004,2.5205738314017654,-0.3714955173388123
1761141614003229400,0.7922294921875,0.9503513440877198,2.6644664617687464,0.14682400764375925
1761141614013288200,0.8022880859375,0.9083329880475998,1.9347391055509446,0.9891717808693646
1761141614023347500,0.812347412109375,-0.09063421064913273,0.39573388653844593,1.8915794705212114
1761141614033406200,0.82240625,-0.8166174119025469,-0.7663499906942248,2.519197574612498
1761141614043466200,0.83246630859375,-1.014352399355173,-0.3735685242205858,1.3136837209761143
1761141614053525500,0.842525390625,-0.6594909136921167,0.49488428885936736,-0.8635001591086388
1761141614063584300,0.852584228515625,-0.23461013538539408,0.22149492548555133,-1.7808742394849657
1761141614073643500,0.8626435546875,0.23381050944030282,-0.4549342635259032,-1.6848285251811146
1761141614083702300,0.872702392578125,0.9279068725675343,-0.9829361013501882,-1.3208777241334317
1761141614093762300,0.88276220703125,1.8611802406042812,-1.2450918307870626,-1.2715952223092317
1761141614103821300,0.8928212890625,3.01060512727201,-1.4491978145763278,-1.4593433610156177
1761141614113880300,0.90288037109375,3.755526837751269,-1.6004235643103717,-1.5558593231797218
1761141614123939300,0.912939208984375,4.139890896752476,-1.3989175338864326,-1.4561194305330514
1761141614133999400,0.922999267578125,4.1474265529543155,-1.0683297809973358,-1.113321015368402
1761141614144058000,0.93305810546875,3.757764972066879,-0.7989701115310192,-0.7113713230550289
1761141614154117400,0.943117431640625,3.1459651993542908,-0.5366314267426728,-0.5873220417991281
1761141614164176100,0.953176025390625,2.4524054273217915,-0.33350890103280545,-0.8029320008993148
1761141614174235400,0.9632353515625,1.5817279239296913,-0.38096506421267984,-1.013388230498135
1761141614184295400,0.97329541015625,0.5441390258938074,-0.4790224105998873,-1.0968991651386022
1761141614194354200,0.983354248046875,-0.5287532407134771,-0.4811252280980348,-1.1142907371833919
1761141614204413400,0.993413330078125,-1.2840858705699443,-0.5647255945876241,-1.0079004467368124
1761141614214472200,1.00347216796875,-1.5678443600058554,-0.5506155284315347,-0.899503492642939
1761141614224531500,1.013531494140625,-1.3701187249034643,-0.5043155495494603,-0.7217720132991671
1761141614234591200,1.02359130859375,-0.5051233588010072,-0.45102673469334836,-0.6340528133139014
1761141614244650200,1.033650146484375,0.4309153822958469,-0.6225137666895986,-0.5219596350505947
1761141614254709200,1.043709228515625,0.8493120592802762,-0.846043120612204,-0.44688159771263597
1761141614264768300,1.053768310546875,0.7614303622096776,-0.943821650058031,-0.498029308886826
1761141614274827300,1.0638271484375,0.2982283288151026,-1.0348641492471098,-0.5115007848784328
1761141614284887300,1.07388720703125,-0.2699666954487562,-1.0724050676122308,-0.4613233800411224
1761141614294946600,1.083946533203125,-0.5972656359255314,-0.9992749494716524,-0.34690731178820133
1761141614305005300,1.09400537109375,-0.5442921706289052,-0.9525921087518334,-0.1753057135015726
1761141614315064300,1.104064208984375,-0.44151393319964405,-0.9690846861302852,-0.02652268074452877
1761141614325123300,1.114123291015625,-0.45584348732531066,-1.0160095189124345,-0.044914662003517146
1761141614335183400,1.124183349609375,-0.4436567904472351,-1.0234230100393296,-0.11359715308547019
1761141614345242400,1.134242431640625,-0.40477030269205566,-0.9942702730521559,-0.07047405067384242
1761141614355301400,1.14430126953125,-0.5520306559264659,-0.8527531396448612,0.1280225688010454
1761141614365360400,1.1543603515625,-0.8096978417724371,-0.6715428782746196,0.39737990017980335
1761141614375419400,1.16441943359375,-1.0395715962857008,-0.4134729568466544,0.6129954122379422
1761141614385479400,1.1744794921875,-1.1331991435319184,-0.1507911577090621,0.7396160052865743
1761141614395538400,1.184538330078125,-1.0921049165993928,0.03379413305222988,0.8205687798768282
1761141614405597400,1.194597412109375,-1.0744488483995198,0.1960878047674894,0.8300126077875495
1761141614415656400,1.204656494140625,-1.1633902836561203,0.32283319323956966,0.8009735603079199
1761141614425715500,1.214715576171875,-1.3858663291335105,0.3673164780884981,0.7435372703835368
1761141614435775200,1.224775146484375,-1.7424293580174446,0.40071956599652764,0.6570923281177878
1761141614445834500,1.23483447265625,-1.8186574421733617,0.4510732041835785,0.5435770080968737
1761141614455893200,1.244893310546875,-1.4492396078914402,0.4426017284363508,0.40521366254538294
1761141614465952500,1.254952392578125,-0.9132160839140415,0.3515229888901114,0.27556612289100885
1761141614476011300,1.26501123046875,-0.5476783059358596,0.26090514485388994,0.1536845410630107
1761141614486071300,1.2750712890625,-0.46998014922738074,0.26240385897904633,0.05314414568841457
1761141614496130300,1.28513037109375,-0.6531546964079141,0.33626638304740186,-0.008555354638397693
1761141614506189300,1.295189208984375,-0.960461234691739,0.40270051068067547,-0.060894613684713834
1761141614516248300,1.305248291015625,-1.0946323892503975,0.48855537809878585,-0.12857289616018533
1761141614526308400,1.315308349609375,-1.017034770306945,0.5663958658874034,-0.21357640744596718
1761141614536367400,1.325367431640625,-0.8636778537631035,0.6213450151711702,-0.27041794634759425
1761141614546426400,1.33542626953125,-0.6568091272622346,0.6484668308526277,-0.33206630100905893
1761141614556485400,1.3454853515625,-0.5324690463662147,0.5962547053173184,-0.4442246534630656
1761141614566544400,1.35554443359375,-0.31746669777035713,0.5426581396862864,-0.5170861837953329
1761141614576604400,1.3656044921875,-0.01885550711750984,0.5639259686425327,-0.527101089592278
1761141614586663200,1.3756630859375,0.12144202136695384,0.536851206973195,-0.4123389843806624
1761141614596722400,1.385722412109375,0.5187877270162106,1.1034916952714324,-0.2112143544897437
1761141614606781200,1.39578125,1.187932019716501,1.4719874462723732,0.45761400412917136
1761141614616840400,1.40584033203125,0.6382663393557071,0.5529600457310676,1.1237287198752164
1761141614626900500,1.415900390625,0.45189796456992626,0.9809230079621076,0.7238409285277128
1761141614636959200,1.425959228515625,0.19528116455972194,1.663094832278788,0.47064504287689923
1761141614647018500,1.4360185546875,0.26346915012300015,1.9517741192430256,0.7312047352939843
1761141614657077200,1.4460771484375,0.8083335676819086,2.057949597895145,0.9665276951238513
1761141614667136500,1.456136474609375,1.6810738488227128,2.0188862922683355,1.0880997726112605
1761141614677196300,1.4661962890625,1.4213058913052081,1.379099026955664,1.1842778811231254
1761141614687255300,1.47625537109375,0.8685480901479721,0.699381025531888,0.7516507264733314
1761141614697314300,1.486314208984375,0.7450508898168802,0.32361119187474247,-0.03947100964486599
1761141614707373300,1.496373291015625,0.1197100830078125,-0.13224690849781034,-0.20879384934455156
1761141614717432300,1.506432373046875,-0.36046938867270945,-0.5376020253404975,-0.44840398497432465
1761141614727492400,1.516492431640625,-0.2850648958593607,0.06534808596223593,-0.5368836479380726
1761141614737551400,1.52655126953125,0.21529636310636996,0.5201163452714681,-1.1031000656053422
1761141614747610400,1.5366103515625,0.5631552765309811,0.7549971142917871,-1.4659528422832488
1761141614757669400,1.54666943359375,0.5774146880298853,0.9403750167354941,-1.5357812885299325
1761141614767729400,1.5567294921875,0.3294441358119249,0.9317992038309574,-1.5325900912731885
1761141614777788400,1.566788330078125,-0.07498597514033317,0.9599711130872368,-2.0261884319752452
1761141614787847200,1.57684716796875,-0.5838964512646198,0.8827247917994856,-2.8010774106949565
1761141614797906400,1.586906494140625,0.5614852974921465,0.7570791812628507,-3.2934292584672566
1761141614807965200,1.596965087890625,2.2020774983227254,0.5878413894981146,-3.1825662065207956
1761141614818025500,1.607025390625,3.3169851983606815,0.08740268138200044,-2.8792700729221106
1761141614828084200,1.617084228515625,3.7946395354777573,-0.5212026792034506,-2.4953531731665133
1761141614838143200,1.627143310546875,5.172615988144278,-0.8763581793770193,-2.6875173747494814
1761141614848202200,1.6372021484375,6.699639677461981,-0.8694839096933603,-3.3575016254052517
1761141614858261200,1.64726123046875,6.647531889083981,-0.3830541454464197,-3.4680990121528503
1761141614868321500,1.657321533203125,6.415898139160871,0.27737229553014037,-2.8476214274659752
1761141614878380300,1.66738037109375,6.657441288679838,0.7223065585672855,-2.0243512796759604
1761141614888439300,1.677439208984375,5.772443583512306,0.45561113987416024,-1.1182380135044454
1761141614898498300,1.687498291015625,4.01910646251142,0.03971358622908592,-0.22319354609698056
1761141614908558300,1.697558349609375,2.913836943912506,0.06662409724742174,0.36005437813103197
1761141614918617300,1.707617431640625,1.5950100148290396,-0.07854717475324868,0.5978004734545945
1761141614928676400,1.71767626953125,0.5839215857058763,-0.05759411083459854,0.1280994334295392
1761141614938735400,1.7277353515625,0.44723347989022727,1.3908216134533284,-1.679611375054717
1761141614948794400,1.73779443359375,0.542338113951683,2.3741107660248875,-2.6100287691384554
1761141614958854400,1.7478544921875,0.30113457165062424,2.115288564924896,-2.071967894114554
1761141614968913400,1.757913330078125,-0.4233353024303913,1.5820301217466592,-0.9384821887262165
1761141614978972400,1.767972412109375,-1.1889333057135343,1.4539830030262468,-0.336685777503252
1761141614989031400,1.778031494140625,-1.7966905250370502,1.3208096273332834,0.13122004966810344
1761141614999090400,1.78809033203125,-2.1775801859259603,0.9676058457493781,0.6591944149635732
1761141615009150200,1.798150146484375,-2.5736013649731873,-0.10863280867636203,0.6287075798284262
1761141615019209500,1.80820947265625,-2.806988680565357,-2.220021151292324,0.25848193629495797
1761141615029268200,1.818268310546875,-4.495334566217661,-5.194945308852195,-0.5117078517578542
1761141615039327500,1.828327392578125,-8.123360228693485,-7.453650703325867,-1.5425750403232872
1761141615049387300,1.83838720703125,-13.566360260915756,-6.945539268624782,-3.0779604614034293
1761141615059446300,1.8484462890625,-18.707189364176987,-3.583834930832684,-4.340709821695089
1761141615069505300,1.85850537109375,-23.17165416035652,-2.162889981794357,-4.0841798231855035
1761141615079564300,1.868564208984375,-24.14065350629091,-4.779566518384218,-2.8370053409054874
1761141615089623600,1.87862353515625,-22.402332168114185,-9.039825085270405,-1.1123826385397464
1761141615099683300,1.888683349609375,-19.72476832436323,-11.351033989441394,0.5153650225585327
1761141615109742300,1.898742431640625,-16.947522455632686,-10.560795465898513,2.184299265047908
1761141615119801300,1.90880126953125,-15.370000751221179,-8.81670489667058,4.29777493533194
1761141615129860400,1.9188603515625,-13.47479841402769,-8.044177386385202,5.337858572793007
1761141615139920100,1.928920166015625,-7.860258742839098,-5.064589913189411,3.3041663410589095
1761141615149979400,1.9389794921875,-2.387520574957132,-3.104197895465791,0.2849501834385097
1761141615160038100,1.9490380859375,0.10092354947328568,-2.772101783840358,-0.26200178098417815
1761141615170097400,1.959097412109375,1.4454817166626452,-0.7479818287022412,-0.9058722970224916
1761141615180156200,1.96915625,1.5507827505677938,1.7615668969467282,-1.1735895330440251
1761141615190216200,1.97921630859375,1.268060618442297,3.5895895488366483,-0.11913790914304553
1761141615200275500,1.989275390625,1.00911742131114,4.643345153297483,1.1852237836711108
1761141615210334200,1.999334228515625,0.13962357474565504,5.0962236533373595,1.034949781703949
1761141615220393500,2.0093935546875,-0.6230120716005564,4.837257075330615,1.8188541337892412
1761141615230452200,2.0194521484375,0.015221534529328345,3.8262373275294896,2.7487328909516333
1761141615240512300,2.02951220703125,1.7178367685526608,2.5371347978413104,1.0583188937883823
1761141615250571300,2.0395712890625,3.4048324086397885,1.7062898308828471,0.5539488375727087
1761141615260630300,2.04963037109375,4.606968894797563,0.8492717272698879,0.3092852910108864
1761141615270689300,2.059689208984375,5.692332520443201,0.9513172665104269,0.545636424844712
1761141615280749300,2.069749267578125,6.679122374612093,1.0157071749649942,1.6091835016101599
1761141615290808300,2.079808349609375,7.605183911573887,0.3139560593008995,2.1480565697997807
1761141615300867300,2.089867431640625,8.181641737270354,-0.3752631262440234,2.138672801513225
1761141615310926300,2.09992626953125,8.969215425518154,-0.04633841119632125,2.0187563822783527
1761141615320985300,2.1099853515625,9.731596220320462,0.3250928817998618,1.908522129754722
1761141615331045400,2.12004541015625,10.222793345099687,0.19939064570516346,1.6086369736433028
1761141615341104400,2.1301044921875,10.682351469033955,-0.06587415566295385,1.6208539195291698
1761141615351163400,2.140163330078125,10.69594160296917,-0.22131211626455186,1.7449926326341927
1761141615361222100,2.15022216796875,10.400767401027679,0.05984320493564009,1.6936996677704155
1761141615371282400,2.160282470703125,9.742259653154015,0.6249231659188866,1.56125270665586
1761141615381341200,2.170341064453125,8.6069462939471,0.9590142507538199,1.2760627231121062
1761141615391400400,2.180400390625,7.492867445948719,1.1653668444260954,1.1966028904933481
1761141615401459200,2.190459228515625,6.70861267299056,1.48989237466678,1.3139249823860824
1761141615411518200,2.200518310546875,6.252957986235618,1.698641946478188,1.4754074838489293
1761141615421578500,2.21057861328125,6.234625626209378,1.7348337883219123,1.5610685822606085
1761141615431637200,2.22063720703125,6.594150427508354,1.6323337833121419,1.5649530224785209
1761141615441696500,2.230696533203125,7.216242461654543,1.4911885519571602,1.6378633603885768
1761141615451755300,2.24075537109375,7.800484949877858,1.4133087550714611,1.6757997078120708
1761141615461815300,2.250815185546875,8.29453863313198,1.3760704729147255,1.6736206102073192
1761141615471874300,2.260874267578125,8.606594996291399,1.3196620647333561,1.4700962256982921
1761141615481933300,2.270933349609375,8.74318431790769,1.403672327198088,1.1082083485297858
1761141615491992300,2.280992431640625,8.710462782523036,1.638761332141608,0.9070790424637496
1761141615502051300,2.29105126953125,8.607886205145716,1.7934543195948003,0.9954000077344477
1761141615512111400,2.301111328125,9.055300302299857,2.1276798444643616,0.8557555363312364
1761141615522170400,2.31117041015625,9.423450308603048,2.2252833096042273,0.896938172199577
1761141615532229400,2.3212294921875,9.867246215260028,2.05765178399235,0.9450862631663679
1761141615542288400,2.331288330078125,10.389591342496871,1.778506925831735,0.8222210771284997
1761141615552348400,2.341348388671875,10.674458085435628,1.619951856122911,0.5731105610951781
1761141615562407200,2.3514072265625,10.432294173669815,1.7547645234555005,0.34982597571387886
1761141615572466400,2.361466552734375,9.562510404247044,2.0407015259742733,0.43866906516253945
1761141615582525200,2.371525146484375,8.28672532903254,2.259913601219654,1.092611697077751
1761141615592584400,2.38158447265625,7.35940765452981,2.703786372505128,1.7826428565926848
1761141615602644500,2.39164453125,6.574087298166751,2.806160120786726,1.9394528361998498
1761141615612703200,2.401703125,5.134956411835551,2.2803499477878213,1.3316615684762596
1761141615622762500,2.411762451171875,3.139703216350078,1.949539199797809,-0.22780922319889066
1761141615632821200,2.4218212890625,0.6210995159775018,1.6771826866030692,-2.2712533258795737
1761141615642881300,2.43188134765625,-2.457809916713834,1.02718966909647,-2.8912714763611556
1761141615652940300,2.441940185546875,-5.290777672666311,-0.18094021225720644,-1.319883452399075
1761141615662999300,2.451999267578125,-6.788463623818755,-1.9636019196808336,1.0175815174695104
1761141615673058300,2.462058349609375,-8.94785231949389,-5.999039923790097,3.9421766598269343
1761141615683117300,2.472117431640625,-10.184419483041763,-8.667338511067628,5.411335312414169
1761141615693177300,2.48217724609375,-10.17023313677907,-6.306465120017529,2.1942821682713927
1761141615703236400,2.492236328125,-13.22482996599078,-5.0443876676380635,-1.7017837516352534
1761141615713295000,2.502295166015625,-19.234410573017595,-5.039566531091928,-4.999412215358019
1761141615723354400,2.512354248046875,-26.024471695160866,-4.073090858416259,-8.406540041458607
1761141615733414400,2.522414306640625,-31.095292611694333,-3.6128488438710566,-9.643603464090823
1761141615743473400,2.532473388671875,-31.78413996825218,-4.498674232034385,-6.959484791868925
1761141615753532400,2.542532470703125,-27.595631463325024,-6.749743140280247,-1.93280842974931
1761141615763591200,2.552591064453125,-21.92293770933151,-9.65547101201713,1.9383371300429104
1761141615773650400,2.562650390625,-18.182508487468958,-11.61264728256464,2.236550991941243
1761141615783710200,2.572710205078125,-16.693808391326666,-11.227041699069737,-0.3592145663060248
1761141615793769500,2.58276953125,-15.344668741565942,-10.52249174646735,-2.675627322730422
1761141615803828200,2.592828125,-14.553269357550143,-9.574945522928237,-3.6015181793004274
1761141615813887200,2.60288720703125,-13.776909721755981,-7.9673419839859,-3.2981723613411185
1761141615823947000,2.612947021484375,-12.62454001380801,-7.07713735782504,-2.0208841880872845
1761141615834006000,2.623006103515625,-10.593819783622026,-6.1718579121291635,-0.42859351521953937
1761141615844065000,2.63306494140625,-6.832102859058976,-4.511816037680209,0.4610613681040704
1761141615854124000,2.6431240234375,-1.945719641509652,-2.7361639167577025,0.42362464076578615
1761141615864183800,2.653183837890625,1.38886960260272,-1.0447083746522665,0.15706161628067491
1761141615874243000,2.6632431640625,2.9364141019016503,1.296613928231597,-0.42811683761849995
1761141615884301800,2.6733017578125,3.331374373719096,3.0905791199579835,-0.6373224826343358
1761141615894361000,2.683361083984375,1.9007482808828353,3.5638384369865057,-0.6474643758118153
1761141615904419800,2.693419921875,-0.08460778996646404,3.50811275037229,-0.16000161525532602
1761141615914479900,2.70347998046875,-0.30256431219279767,3.4503526353210208,0.4636611753389239
1761141615924539100,2.7135390625,-0.1654500899195671,2.9824580601960418,0.9017208764314651
1761141615934598000,2.723597900390625,0.7417816588878631,2.3095799877949057,1.023937827693671
1761141615944657200,2.7336572265625,2.575901458609104,1.462397780150175,0.7995901431255042
1761141615954717000,2.743717041015625,5.139484118393063,0.48055122760236263,0.7566865286834538
1761141615964776000,2.75377587890625,7.972207544195651,-0.7797435791440308,0.4361370624668896
1761141615974835000,2.7638349609375,10.153207183176278,-1.2708178081959485,0.05331497221067547
1761141615984894000,2.77389404296875,11.493977648520469,-1.1432796619109808,-0.33854455711245535
1761141615994954000,2.7839541015625,12.120829444414376,-1.1007612473942339,-0.22692191897034644
1761141616005013000,2.794012939453125,11.91278173726201,-0.9386173594132066,0.8747009136892855
1761141616015072000,2.804072021484375,11.358555617117881,-0.09972060342431067,1.4740091613583266
1761141616025131000,2.814131103515625,10.461088890999555,0.5796057683333754,1.9246087566807866
1761141616035190000,2.82418994140625,9.719059394830465,0.6907768633157014,2.19045442667678
1761141616045250000,2.83425,9.052545450633763,1.0355870566941796,2.124762934104353
1761141616055309000,2.84430908203125,8.042349001914262,1.4803050466321408,1.797205488821864
1761141616065368000,2.8543681640625,6.901233093908429,1.7249229274213314,1.6085123243503272
1761141616075427000,2.864427001953125,5.675584214738011,1.9285582249589264,1.5123631496720016
1761141616085486800,2.87448681640625,4.657793073105812,2.4538006810724733,1.681052806034684
1761141616095546000,2.884546142578125,4.357190416374802,3.0405870085597035,2.075181010942161
1761141616105604900,2.89460498046875,4.768780335953831,3.430184292039275,2.274652320668101
1761141616115664100,2.9046640625,5.578116358676552,3.745782273328304,2.386495761954039
1761141616125724200,2.91472412109375,6.3233712466329335,4.144959578318893,2.415700521389395
1761141616135783000,2.924782958984375,6.890804054352641,4.386530200366676,2.3197246574513612
1761141616145842200,2.93484228515625,7.614395976555347,4.215144875179231,2.2786348144330084
1761141616155901000,2.94490087890625,8.539161043965816,4.011728919480741,2.0230434119477865
1761141616165960200,2.954960205078125,8.74838948533535,3.804434953305125,1.9308679632060228
1761141616176020000,2.96502001953125,8.643627965134382,3.6378351088285443,2.11412843510434
1761141616186079000,2.975078857421875,8.150205565521121,3.779052674767375,2.2834755324624476
1761141616196138000,2.985137939453125,7.666233131298422,4.150032936060429,3.0438194146096706
1761141616206197000,2.995197021484375,7.732083613824844,4.302150373937189,3.8589363588213916
1761141616216257000,3.005257080078125,8.154131799054145,4.4203456684678795,4.331008219631016
1761141616226316000,3.01531591796875,8.415176352378726,4.229401656329632,4.817034663774073
1761141616236375000,3.025375,9.012168432059884,3.4335435393393037,5.304155040633678
1761141616246434000,3.03543408203125,10.840354750078916,2.443233986611664,5.3983706169009205
1761141616256494000,3.045494140625,13.769659312236309,1.1556699185371397,4.903516723179817
1761141616266552800,3.055552734375,16.51382358009815,-0.1244715983211994,4.777880464993417
1761141616276612000,3.065612060546875,17.999016544902325,-0.13081921378225086,4.776621112582087
1761141616286670800,3.0756708984375,17.696477367150784,0.6542319702506065,3.8144349537938833
1761141616296731000,3.08573095703125,15.429851116549967,0.3070312284737825,4.243054918628931
1761141616306790100,3.0957900390625,13.358800045019388,0.29111762002706526,5.4131601897537704
1761141616316849000,3.105848876953125,12.286401114887,2.1726561735272405,5.600381966498494
1761141616326908200,3.115908203125,9.406502680933475,2.6328707155436275,5.098419702076912
1761141616336967000,3.125966796875,4.254002429100871,1.348852357251942,2.8280422822490334
1761141616347027000,3.13602685546875,-1.5217378578692673,-0.5314142766162753,-1.0848679510831831
1761141616357086000,3.1460859375,-8.078761793032289,-2.5827690062910316,-4.780513151584565
1761141616367145000,3.15614501953125,-13.347653212583063,-3.818557002159953,-7.422322668126225
1761141616377204000,3.166203857421875,-15.309830067896842,-4.612953522165119,-7.946482151308655
1761141616387264000,3.176263916015625,-15.749946993780135,-6.252154853159189,-4.809911387765407
1761141616397323000,3.186322998046875,-13.03777243989706,-8.79602100508213,0.7668938883125782
1761141616407382000,3.196382080078125,-10.450669203794002,-9.773720374822616,1.592763404946029
1761141616417440800,3.206440673828125,-11.19395191489458,-12.059554014718532,-2.6392878891095517
1761141616427501000,3.2165009765625,-11.55507304547429,-13.5573632999897,-9.740895963585377
1761141616437560000,3.22656005859375,-11.267914976727962,-11.851575281149149,-11.184746864175796
1761141616447619000,3.236619140625,-17.483057903832197,-6.826951467645168,-8.467325057289004
1761141616457678000,3.246677978515625,-30.516171704268455,-0.8111322584897279,-6.5688786236077545
1761141616467737900,3.25673779296875,-41.05879087748527,2.7993244295477866,-3.9148587370514867
1761141616477797000,3.266797119140625,-42.36182110249996,3.9528646425798533,0.04048822386339307
1761141616487855900,3.27685595703125,-36.53722647598982,5.070680631279945,1.3448080502972006
1761141616497915100,3.2869150390625,-30.90432463415861,4.575741689623892,-0.5903751457594335
1761141616507975200,3.29697509765625,-24.980080715894697,2.74878637470454,-5.3117865584254265
1761141616518034000,3.307033935546875,-17.190716294968126,-0.38995997931212184,-10.140207416349648
1761141616528093200,3.31709326171875,-8.41490688778758,-3.03951207280457,-13.52554777353406
1761141616538152000,3.32715185546875,-1.5708949797481297,-5.352404984539747,-14.808396795785427
1761141616548211200,3.337211181640625,2.406655483537912,-6.38922932794392,-13.93200442187786
1761141616558271000,3.34727099609375,2.9131776032209395,-6.67524699448347,-11.81996083022356
1761141616568330000,3.357330078125,1.9374118318915365,-5.4096670869410035,-9.416233216831088
1761141616578389000,3.367388916015625,0.4209218115478754,-3.452542254319787,-7.404247497731447
1761141616588448000,3.377447998046875,-0.9888543854832649,-1.6860379009708761,-5.488489863765239
1761141616598507800,3.3875078125,-1.2128425890892742,0.17960779460966586,-3.975890128858387
1761141616608567000,3.397567138671875,-0.25631284862756726,1.3678306139662861,-2.8271096775740383
1761141616618626000,3.4076259765625,1.7037006911724806,2.397700023666024,-1.7195608158662914
1761141616628685000,3.41768505859375,4.319759972646832,3.197813752274215,-1.0109946864251047
1761141616638745000,3.4277451171875,6.818641319939494,3.5582787570327516,-0.7366811208784579
1761141616648803800,3.437803955078125,9.224891729807853,3.5922879941403862,-0.4811995354432612
1761141616658863000,3.447863037109375,11.32678100719452,3.5875989595413205,0.10869907884560524
1761141616668921900,3.457921875,12.936367244386672,3.7179923491269347,0.9133245127245784
1761141616678982100,3.467982177734375,14.038511324441432,3.912090441381931,1.6674018818229437
1761141616689041000,3.478041015625,14.642459214609861,4.062883644917607,2.321431169108301
1761141616699100000,3.488099853515625,14.870393525493144,4.165052226015925,2.9188690928608176
1761141616709159000,3.498158935546875,14.571099613273143,4.42867978157103,3.6278470910385248
1761141616719219000,3.508218994140625,13.848466891491412,4.845427522304654,4.389916043412685
1761141616729278200,3.5182783203125,12.814544699269533,5.164150942137837,4.861826576180756
1761141616739337000,3.5283369140625,11.684753902876377,5.480532767280936,4.866927406451106
1761141616749396000,3.53839599609375,10.711062015211581,5.69561694894135,4.680646125426888
1761141616759456000,3.5484560546875,10.34447794305086,5.679499342355132,4.898067225602269
1761141616769515000,3.558514892578125,10.711394023644923,5.815664885601401,5.324154457089304
1761141616779574000,3.568573974609375,11.313342848950624,5.850373210889101,5.82881429003179
1761141616789633000,3.578633056640625,11.624391496372223,5.939253855869174,6.223700912091136
1761141616799693000,3.588693115234375,11.644737534308433,6.212360018387437,6.406120256990194
1761141616809752000,3.598751953125,11.714555166900157,6.255691795113682,6.640463265872001
1761141616819811000,3.60881103515625,11.78534544391632,6.124668290930986,6.607527795475721
1761141616829870000,3.6188701171875,11.613533417749403,5.9594976024746895,6.027957975238562
1761141616839928800,3.6289287109375,10.893936702662705,5.619995013985037,4.813607904195785
1761141616849988900,3.63898876953125,9.842036955201625,5.090057531923056,3.6067975810080766
1761141616860048100,3.649048095703125,9.18054697664678,4.787750993883609,3.371541548934579
1761141616870107000,3.65910693359375,9.363587083792686,4.959954649716615,3.881706116773188
1761141616880166100,3.669166259765625,9.026998336923121,4.207931290538609,3.870441210915148
1761141616890226000,3.679225830078125,9.316500338447094,4.198087649655342,3.865827579639852
1761141616900285000,3.689284912109375,10.477686974579095,4.414462747909129,3.560350010348856
1761141616910344000,3.699343994140625,11.154852076649664,3.8401211837142704,2.057970932944119
1761141616920403000,3.70940283203125,10.767103635907173,2.74543852558136,0.6751032011047006
1761141616930463000,3.719462890625,9.384252855202556,2.339685641592741,1.2077058107227086
1761141616940522000,3.72952197265625,8.37674637621939,3.030199470058083,2.02413705240339
1761141616950581000,3.7395810546875,6.651150664103031,3.131950702527165,2.1958140540137885
1761141616960640000,3.749639892578125,4.644902611872554,2.127397520391643,1.8065058166086672
1761141616970700000,3.759699951171875,2.9411007984131574,1.031667399032414,0.8507792092233896
1761141616980758800,3.7697587890625,1.4243956740140915,-0.1585924791097641,-0.31866935155838727
1761141616990818000,3.779818115234375,-0.664869099599123,-1.3406655436649917,-2.254393084232509
1761141617000876800,3.789876708984375,-4.226134763488173,-2.331202183146775,-4.762172315990925
1761141617010937000,3.79993701171875,-9.29187033958137,-3.109175391617417,-6.374026498115063
1761141617020995800,3.809995849609375,-14.349417348521946,-3.8054917688816783,-5.947938097584247
1761141617031054800,3.820054931640625,-17.675944282209873,-4.8763840938434,-5.378391658711433
1761141617041113900,3.83011376953125,-20.60184341983795,-6.196573251190781,-6.158223354530334
1761141617051174000,3.840173828125,-23.73593288795948,-7.195795301431417,-8.135605962282419
1761141617061233200,3.850233154296875,-27.630632634079454,-8.431073009690643,-10.484882439041137
1761141617071292000,3.8602919921875,-32.30068196216821,-8.71595728828609,-12.48440556693077
1761141617081351200,3.87035107421875,-36.66761928105354,-8.101419615042209,-13.7823948751688
1761141617091411000,3.880410888671875,-39.000864660465716,-7.143389406889677,-13.655672867572306
1761141617101470000,3.890469970703125,-38.377226565921305,-5.8952750134110445,-13.640735995203256
1761141617111529000,3.900529052734375,-34.933024854445456,-6.989902141964436,-11.867448557585478
1761141617121588000,3.910587890625,-30.136898830926416,-7.783394698867201,-10.32457847983837
1761141617131648000,3.92064794921875,-25.224604927051065,-7.378737793421745,-9.515313768786191
1761141617141707000,3.93070703125,-19.809582450556753,-6.446804734078049,-9.108847768092154
1761141617151766000,3.94076611328125,-14.55103765297532,-6.30198651329875,-7.45873779733181
1761141617161825000,3.950824951171875,-10.875803664600848,-5.995552081674337,-5.478704382809997
1761141617171885000,3.960885009765625,-7.928757109525799,-4.581443116135895,-4.600362336139381
1761141617181943800,3.97094384765625,-5.436184506988525,-2.53637082773149,-3.596583353246748
1761141617192003000,3.981003173828125,-2.1418822650790212,-0.6506421290650963,-2.0211074754491447
1761141617202061800,3.991061767578125,2.39170224455595,1.1701488180056214,0.07632862192094325
1761141617212121900,4.001121826171875,5.330659016677737,1.9880574387624859,2.507599491277337
1761141617222180900,4.011180908203125,8.05455148088336,2.869054383856058,4.4618338631540535
1761141617232239900,4.021239990234375,11.053082139480113,3.233910609310865,5.453076020556688
1761141617242299000,4.031298828125,13.002906878221035,3.6984444758310913,5.663680426454544
1761141617252359000,4.04135888671875,13.227812196671962,4.2214749549835915,5.189583489558101
1761141617262418000,4.05141796875,12.339108622723817,4.306247872383892,4.559473276390135
1761141617272477000,4.061476806640625,11.857813298755884,4.226297845095396,3.5932243982076644
1761141617282536000,4.071535888671875,11.782355029928684,3.846347510883212,2.3293299595341086
1761141617292596000,4.081595947265625,11.639624136817455,3.6802097309604287,2.638644038248062
1761141617302655000,4.091655029296875,11.781602165734768,4.411506820712983,3.164150552125275
1761141617312714000,4.1017138671875,12.202737327772379,5.1907016799330705,3.604267478008568
1761141617322773000,4.11177294921875,12.436671171331405,5.285689409616589,4.583177392582595
1761141617332833000,4.1218330078125,12.837475493001937,5.008353062182665,5.384855301767588
1761141617342892000,4.13189208984375,13.041473632502555,4.722870233172178,5.478144995361566
1761141617352951000,4.141950927734375,12.58610536147356,4.508796689859032,4.946590725752711
1761141617363010000,4.152010009765625,11.967265022599696,4.2467473434060805,3.960666548502445
1761141617373070000,4.162070068359375,11.471734252530336,3.885450271737575,3.3253082055479286
1761141617383128800,4.17212890625,11.493524059534073,3.718058984622359,3.1004464339777824
1761141617393188000,4.18218798828125,12.104912913358211,3.747621179193258,3.062257280836999
1761141617403246800,4.192246826171875,13.000608538150786,3.8905785745367405,3.52057241897285
1761141617413307000,4.202306884765625,13.623743943870068,4.0652345919579265,4.331073393821716
1761141617423366100,4.2123662109375,14.029354204517603,4.234558600701392,5.080919116699695
1761141617433425000,4.2224248046875,14.023269331645965,4.406529324561357,5.267151297885179
1761141617443484200,4.232484130859375,13.686369619131087,4.356170425677299,4.861300506480038
1761141617453544000,4.2425439453125,13.221804480689764,4.05870080627501,4.160692277240753
1761141617463603000,4.25260302734375,12.616521542525291,3.6838898807778953,3.5016397549659013
1761141617473662000,4.262661865234375,12.238480841326712,3.220411660790443,3.03528744084686
1761141617483721000,4.272720947265625,11.960444821190833,2.5795816084265706,2.7530086685746906
1761141617493780700,4.28278076171875,11.98094517290592,2.3912515781790016,1.7784100413285195
1761141617503840000,4.292840087890625,11.449074676954746,2.081749575677514,1.3444552913367747
1761141617513898800,4.302898681640625,10.32581299006939,1.9168702713832257,1.2581671470679343
1761141617523958000,4.3129580078125,9.09255480493903,2.1592153849348423,0.7743786911100149
1761141617534018000,4.32301806640625,7.760096240866184,2.380662087364495,0.0383544997703284
1761141617544076800,4.333076904296875,6.555027208387851,2.198920495596528,-0.9678464495722204
1761141617554136000,4.343135986328125,5.266778372919559,1.9264342185422778,-1.8628113489374518
1761141617564194800,4.35319482421875,3.538234916913509,0.5828548332571983,-1.4222868651665745
1761141617574255000,4.363255126953125,1.8125445122510193,-1.2664870855152606,-1.597827410337329
1761141617584313900,4.37331396484375,-0.40565643787682054,-3.1180189155474305,-2.4600895520836112
1761141617594372900,4.383372802734375,-3.029297552782297,-5.72403815678358,-2.208589072173834
1761141617604432000,4.393431884765625,-5.619453162193298,-8.212315107953549,-2.335812015029788
1761141617614492000,4.403491943359375,-10.177994418430329,-9.48728477513194,-3.7459172978848216
1761141617624551200,4.41355126953125,-15.973461150133609,-9.81216905568242,-5.020325824049115
1761141617634610000,4.42360986328125,-21.689358086037636,-8.770594302880763,-6.859219414043426
1761141617644670000,4.433669921875,-27.52014163031578,-5.6101271154433485,-10.041149660748243
1761141617654729000,4.44372900390625,-33.90998996694088,-2.5049451773762703,-11.307571279811858
1761141617664788000,4.4537880859375,-39.6500650662899,-0.27295024130418893,-10.139991143250464
1761141617674847000,4.463846923828125,-42.61639207589626,0.9820039350666105,-7.821956776973605
1761141617684907000,4.473906982421875,-40.31190751154423,1.1773561190359294,-5.348487518835068
1761141617694965800,4.4839658203125,-33.72668390233517,0.3637048634625971,-3.199227418464422
1761141617705025000,4.49402490234375,-26.441871762323377,-1.0281420013852416,-1.295365243344754
1761141617715084000,4.504083984375,-19.40215666491985,-1.8648852326020597,0.17374862025268376
1761141617725143800,4.514143798828125,-14.242698849034308,-2.1566598552331326,0.24408070517256855
1761141617735203000,4.524203125,-11.67917054978609,-1.9045710540413856,-0.7099427515566349
1761141617745261800,4.53426171875,-9.88358009494543,-1.0416329127296804,-1.2607174160726369
1761141617755321000,4.544321044921875,-8.168889223203063,0.3371136475265026,-0.9605541736721992
1761141617765380900,4.554380859375,-5.844563063305616,1.6989035200238227,-0.061697965956851834
1761141617775440000,4.56443994140625,-1.9344331083416937,2.2100950928226113,0.10645860644243657
1761141617785499000,4.574498779296875,2.1559271570444105,2.340677575239539,-0.2644794962093234
1761141617795558000,4.584557861328125,5.6485781343907115,2.2021479332104326,-1.2859651084452868
1761141617805618000,4.594617919921875,8.286623037701844,2.087348418597877,-1.33860349656865
1761141617815677000,4.604677001953125,10.19470122308135,3.068115943737328,-0.6804955616675317
1761141617825736200,4.614736083984375,12.04426642921567,3.9994451919689773,0.0586740150257945
1761141617835795200,4.624795166015625,13.023126659429073,3.9762832198292015,0.6315465295813978
1761141617845855200,4.634855224609375,13.421760066801308,3.8639527256786823,1.0840854224033654
1761141617855914200,4.644914306640625,13.56611125459075,3.7440716700181365,1.5658642921045423
1761141617865973200,4.65497314453125,13.547208985722063,3.3245079950809475,1.8730244076550007
1761141617876032000,4.665031982421875,13.528483242464064,2.7847999373719095,1.775066137728095
1761141617886092300,4.67509228515625,13.308221365904807,2.3812764198705554,1.187239507407695
1761141617896151300,4.6851513671875,13.112806345832347,2.02055685582906,0.8118211175367236
1761141617906210300,4.695210205078125,13.00394265100956,1.7287623594537376,0.8884573441021144
1761141617916269300,4.705269287109375,12.436869908773899,1.63000621714741,1.1964531798243523
1761141617926329000,4.7153291015625,11.362298895299434,1.7225483072444796,1.3929498576536774
1761141617936388400,4.725388427734375,10.18552422941327,1.8377891358837484,1.629425786910951
1761141617946447000,4.735447021484375,8.987963380607962,1.9924948366880415,1.9409686475902794
1761141617956507100,4.745507080078125,8.329977026259899,1.9304437464445827,1.949384301497042
1761141617966566400,4.75556640625,8.185927451765536,1.6820479545518754,1.72985351569131
1761141617976625200,4.765625244140625,8.337520281246304,1.4372950492061674,1.3947919783890246
1761141617986684400,4.775684326171875,8.451026833438872,1.2303962198279796,1.1244655827824026
1761141617996744200,4.785744140625,8.755309055465458,1.066915530285239,1.1060678293697535
1761141618006803200,4.79580322265625,9.213021259272098,0.9267160553477704,1.1117699134688823
1761141618016862200,4.8058623046875,9.094787678557633,0.7278067634187638,1.19455523724854
1761141618026921200,4.815921142578125,8.906047313943505,0.607374649746716,1.2280655849233268
1761141618036981000,4.82598095703125,8.692575828176736,0.40460254490971564,1.0684597640525548
1761141618047040300,4.836040283203125,8.29968827098012,0.0031502807244658468,0.7676048130609094
1761141618057099000,4.84609912109375,8.047056156691909,-0.3442100355282426,0.56464449217543
1761141618067158300,4.856158203125,8.040704157316684,-0.5991745382867754,0.3531355386532843
1761141618077218300,4.86621826171875,8.205821654281019,-0.5778688615381717,0.017083090617507696
1761141618087277000,4.876277099609375,8.508111825707555,-0.4253770373910665,-0.43280053845532235
1761141618097336300,4.88633642578125,8.658226399329305,-0.33599750297814607,-0.9220149649847298
1761141618107395000,4.89639501953125,8.313101879304647,-0.23516470052823424,-1.199141834386438
1761141618117455400,4.906455322265625,7.311919927167892,-0.1666962905883789,-1.2529194556728005
1761141618127514000,4.91651416015625,6.5681210832387205,-0.5075571618191898,-1.927109779716283
1761141618137573000,4.926572998046875,5.034000713658332,-0.7906193395540118,-2.845144808219373
1761141618147632000,4.936632080078125,3.1733535570174456,-0.7289953886814415,-2.9161969510421155
1761141618157692200,4.946692138671875,1.5667548112034797,-0.6216691325590014,-2.7089976774126288
1761141618167751400,4.95675146484375,-0.5780459716707468,-0.7075611171171069,-2.204167164078355
1761141618177810200,4.96681005859375,-3.1936335439801216,-0.6777779732719064,-2.1320805636413396
1761141618187870200,4.9768701171875,-6.8189628069788215,-1.108727257837355,-2.410561258804798
1761141618197929200,4.98692919921875,-11.000620130836962,-1.5007804100364446,-2.5896362617120143
1761141618207988200,4.99698828125,-14.336741406822204,-1.856356181448698,-2.10819363822788
1761141618218047200,5.007047119140625,-17.59266160336733,-2.0536209210410714,-1.7625578076802193
1761141618228107300,5.017107177734375,-21.471880871760845,-1.7979340953573584,-1.3214765668094157
1761141618238166000,5.027166015625,-24.210735342776776,-1.2679571580678224,-1.8538246171444654
1761141618248225300,5.037225341796875,-26.750368387174603,-1.257737377348542,-3.925938349470496
1761141618258284000,5.047283935546875,-30.096283911943434,-1.4179524892240762,-5.839029394575953
1761141618268344000,5.057343994140625,-31.571911760544776,-1.4130679320529103,-5.989468962368369
1761141618278403300,5.0674033203125,-29.658605611383912,-1.6635376076102255,-4.155341563862562
1761141618288462000,5.077462158203125,-25.442185017180442,-2.5839696142524478,-1.8517236993424593
1761141618298521300,5.087521240234375,-21.10513313347101,-3.8353967855408784,-0.3707232177920639
1761141618308581000,5.0975810546875,-18.08958704266548,-4.72869470154196,-0.14197963635250926
1761141618318640000,5.10764013671875,-16.087492018461226,-4.976009712460637,-0.7061316688358783
1761141618328699100,5.11769921875,-14.169974973607063,-4.722892152743041,-1.482323546847701
1761141618338758100,5.127758056640625,-12.806271376442908,-4.118945431618393,-1.9592216587699949
1761141618348818200,5.137818115234375,-11.102752471578121,-3.338627705848217,-1.7196711443729698
1761141618358877200,5.147877197265625,-8.056233150359988,-2.5992329420968887,-1.4320290915019809
1761141618368936200,5.157936279296875,-4.225589989086985,-2.2446865137323737,-1.5632029639407992
1761141618378996200,5.167996337890625,-0.8244839074939488,-1.9475424730226396,-1.4337117838919162
1761141618389055200,5.17805517578125,1.2493231847465038,-0.8133128173992037,-1.0527679085977375
1761141618399114200,5.1881142578125,2.6820114708095786,0.38216187278181313,-0.39983869150876994
1761141618409173200,5.19817333984375,4.8490521425426,0.8144729472197592,0.024153175134211776
1761141618419233300,5.2082333984375,7.08133480951488,1.0470182590298354,0.22953407423011957
1761141618429292300,5.218292236328125,8.692228037652372,1.6383390150763093,1.0064288398142904
1761141618439351300,5.228351318359375,10.025255341523884,2.2689257597148416,1.629673624192178
1761141618449410300,5.238410400390625,11.140166548693179,2.338268468271196,2.2017408137142658
1761141618459470300,5.24847021484375,12.098448101258278,2.2617503151275216,2.4250669001497327
1761141618469529000,5.258529052734375,13.026183708912134,2.1139744135864076,2.3904402617961167
1761141618479588400,5.26858837890625,13.313503105700015,1.4274481934525072,2.439748044192046
1761141618489647000,5.278647216796875,13.739757510447502,1.4632456291511653,1.2747978177428245
1761141618499707100,5.28870703125,14.160610932934283,1.4113406698688864,0.07481032631248236
1761141618509766100,5.29876611328125,13.595064961874485,0.6816187204785644,-0.15245562032256274
1761141618519825200,5.3088251953125,12.922214800393581,0.63772945600003,-0.05495758831854909
1761141618529884200,5.31888427734375,12.477611084485053,0.9231802824370563,0.4006261520920321
1761141618539944200,5.328944091796875,12.505145572620629,1.0926808167912065,1.1832486111406235
1761141618550003200,5.339003173828125,12.728705321681499,1.2711249744489788,1.733813797624409
1761141618560062200,5.349062255859375,12.400489266359806,1.6042429764680564,2.1646714583836495
1761141618570122200,5.359122314453125,11.729792483520507,1.7195498560808598,2.206413773961365
1761141618580181200,5.36918115234375,10.814543432474135,1.856073418984562,1.874938278452307
1761141618590240300,5.379240234375,9.69322002017498,2.1293696972474456,1.4314651740089057
1761141618600299000,5.389299072265625,8.873876982700825,2.402937047536671,1.153464444382116
1761141618610359300,5.399359375,8.457399291080236,2.4525176555246113,0.7192268588609994
1761141618620418300,5.409418212890625,8.256056050002574,2.50750012255609,0.4963369353530928
1761141618630477300,5.419477294921875,8.512211077719927,2.8522540557026863,0.06732724054809659
1761141618640536300,5.429536376953125,8.812659420672059,2.9547882552430034,0.042086745101213456
1761141618650596000,5.43959619140625,9.10740049189329,2.8612071774870156,0.4216868411036208
1761141618660655400,5.4496552734375,9.42560777889788,3.050125529016554,0.7571209745779633
1761141618670714000,5.459714111328125,9.640666241595149,3.3090310244858263,1.3468095993779599
1761141618680774100,5.469774169921875,9.601631869801878,3.621308336919546,2.058768366932124
1761141618690833200,5.479833251953125,9.26102044328749,4.0281580762341616,2.6996178546488285
1761141618700892200,5.48989208984375,9.164110221108794,4.224476767148078,3.1832822458356618
1761141618710951200,5.499951171875,9.563947743573785,4.338717186573147,3.7550571744129058
1761141618721011200,5.51001123046875,9.802894446858764,4.220549364571273,4.421673994462192
1761141618731070200,5.5200703125,9.516630112081765,4.289191523642838,4.64462964015007
1761141618741129200,5.530129150390625,8.492195879173279,4.663558212503791,4.70464542517364
1761141618751188200,5.540188232421875,7.163750642395019,4.969100079202652,4.791806406754255
1761141618761248000,5.550248046875,5.222395041313767,4.57483275808543,4.264799717447161
1761141618771307300,5.560307373046875,2.889983774638176,2.550609780964255,4.757176407399773
1761141618781366000,5.570365966796875,-0.5167594360589981,0.7028972169592976,5.497244248107076
1761141618791426300,5.58042626953125,-4.595936628651619,0.19252309802323578,5.018444832608103
1761141618801485300,5.5904853515625,-7.4086249821633094,-0.9438147819258272,4.022252359321713
1761141618811544000,5.6005439453125,-11.170458811104297,-4.3719250441700215,2.3307088466718793
1761141618821603300,5.610603271484375,-15.720381876599788,-6.295903978514671,-0.6217714238896965
1761141618831663600,5.62066357421875,-24.042790513432024,-6.221829857522249,-0.8986278788521885
1761141618841722400,5.630722412109375,-32.6318907695651,-4.849103288207948,1.375282245146483
1761141618851781600,5.64078173828125,-36.80404201393127,-2.485607439699769,2.165430313926935
1761141618861840400,5.65084033203125,-38.669693262469764,-0.7572216584734618,1.960507460796833
1761141618871900700,5.660900634765625,-38.29058873143196,-0.49376229909211394,0.791537842638418
1761141618881959700,5.670959716796875,-35.154892997157575,-0.5348600331559777,-0.720736386641115
1761141618892018400,5.681018310546875,-29.176566775572297,-1.9896803637892007,-1.7771667632691561
1761141618902078700,5.69107861328125,-21.57060194275379,-4.501505071546137,-3.917430048844218
1761141618912137500,5.701137451171875,-14.61825182507038,-4.610424295948445,-3.8595588746339082
1761141618922196700,5.71119677734375,-8.762311627703905,-4.739740703952312,-3.664113167162239
1761141618932255500,5.72125537109375,-4.642386245137453,-3.6206095410004258,-4.915039403191209
1761141618942315500,5.7313154296875,-2.266011918094754,-2.1279855494126676,-5.21681344178915
1761141618952374800,5.741374755859375,-0.8812801459491253,-0.6902976284313946,-4.432434750190377
1761141618962433500,5.75143359375,-0.6220534557014703,1.0323228672664613,-4.975703422990441
1761141618972492800,5.761492919921875,-8.23381440757811,1.4108797743588686,-9.880975465404987
1761141618982552600,5.771552490234375,-15.593292789256571,-0.8538689919322728,-12.560959229779243
1761141618992611600,5.781611572265625,-1.3054934002578258,-0.5454951897431165,-5.39771770595014
1761141619002670600,5.791670654296875,2.328711827635765,1.0127029516477137,-3.606815408925712
1761141619012730600,5.801730712890625,5.21015456842184,0.5448186787210405,-2.6918366992533205
1761141619022789400,5.811789306640625,7.749104306730628,0.30179683495163917,-2.580259946079552
1761141619032848600,5.8218486328125,9.112003017252682,0.344145738120377,-1.4295461886450647
1761141619042907400,5.831907470703125,10.184996990668774,0.8831663250219076,0.2568433753076941
1761141619052967400,5.841967529296875,10.619468604141472,1.3085662318319082,1.5038611326560378
1761141619063026700,5.852026611328125,10.793912147855758,1.6064086300693452,2.1914866923339664
1761141619073085400,5.86208544921875,11.320440113735199,2.0601400936767456,2.566860074019432
1761141619083144700,5.872144775390625,12.104307348680495,2.419596798175573,2.602958976882696
1761141619093204500,5.88220458984375,13.135522035509346,2.264105792212486,2.4193942613407966
1761141619103263700,5.892263671875,13.831681760907172,1.8051120241627097,1.8878788624376057
1761141619113322500,5.902322509765625,13.489978447502851,1.4565531457751988,0.9290456673391163
1761141619123382500,5.912382568359375,13.428614170479774,0.9659026950933038,-1.540416839376092
1761141619133441800,5.92244189453125,11.85481703954935,-0.023780104038119313,-5.920311254990101
1761141619143500500,5.93250048828125,7.68177264573574,-1.285211367468536,-9.63730582525134
1761141619153559800,5.942559814453125,6.904004896709322,-1.9261738140404223,-9.322953460109233
1761141619163619600,5.95261962890625,8.056838130515814,-0.7431181681886315,-4.9930941182523965
1761141619173678600,5.9626787109375,6.530004410812258,0.9068632077559828,-1.6711965979307888
1761141619183737600,5.972737548828125,9.11318492051363,1.3506705125898122,-1.808349106387794
1761141619193796600,5.982796630859375,9.281841697520017,1.654132504274696,-0.3883639422923326
1761141619203856400,5.9928564453125,8.810644573718308,1.7204422748759387,-0.15241379047483206
1761141619213915600,6.00291552734375,9.044519965088368,1.025405927484855,-0.2654097627967596
1761141619223974400,6.012974365234375,9.559099134498833,1.1889743683762848,-1.042038570921123
1761141619234034400,6.023034423828125,10.245530077564716,2.0963857115343214,-1.7616404005743562
1761141619244093700,6.03309375,10.878683019429445,2.457106152358651,-2.1901368851602077
1761141619254152400,6.04315234375,10.245499682426452,1.9648248856045305,-3.0789614551395177
1761141619264211700,6.053211669921875,9.521757538098097,1.351137253318727,-3.38013694332242
1761141619274271500,6.063271484375,9.59674175967276,0.792962249418348,-2.1199548031702635
1761141619284330500,6.07333056640625,10.384064103507995,-0.15332228362187741,-0.9004903117232024
1761141619294389500,6.083389404296875,9.866849909418821,-1.2673833037026225,-0.287876738409698
1761141619304448500,6.093448486328125,7.790063509106636,-1.6707500232070684,-0.348487566716969
1761141619314508800,6.1035087890625,6.913596900919079,-1.7860488656438887,-0.742699358254671
1761141619324567600,6.113567626953125,6.319101314228773,-1.9958070299759505,-0.8762690397888422
1761141619334626600,6.12362646484375,5.761410732844472,-1.83559937075451,-0.6468275392130017
1761141619344686600,6.1336865234375,4.714239767470955,-1.8892038274310528,0.692029201464355
1761141619354745600,6.14374560546875,1.073159977632761,-1.1163389018848537,3.1124554362013934
1761141619364804600,6.1538046875,-0.39831951911747454,0.679625793095678,1.2624866177022456
1761141619374863600,6.163863525390625,-3.146846658363938,2.396540332236886,2.2848846686080098
1761141619384923600,6.173923583984375,-5.1245139282763,1.4199194053828716,0.40766865448206663
1761141619394982700,6.183982666015625,-7.02417207583487,0.4997407889798283,-0.6648612085536122
1761141619405041700,6.194041748046875,-8.570930393192171,1.421627086083591,2.0538132287427784
1761141619415101400,6.204101318359375,-11.360492722660302,0.4946151165291667,10.648590653729439
1761141619425160700,6.21416064453125,-19.45266403236389,-2.548817636850476,13.880263713246583
1761141619435219500,6.224219482421875,-29.56782468574047,-8.118918446853757,15.476708729314803
1761141619445278700,6.23427880859375,-33.97156584088802,-13.802956017160415,14.360559504783152
1761141619455338500,6.24433837890625,-32.13177384074926,-13.157723345923422,8.99826440986991
1761141619465397500,6.2543974609375,-26.602210792839525,-15.268141966724395,5.395577186790108
1761141619475456500,6.26445654296875,-13.68560038832426,-16.654337966203688,4.868138243545592
1761141619485515500,6.274515625,-13.642151707220076,-15.014973845863341,7.217516719374061
1761141619495575600,6.284575439453125,-15.50433557190895,-14.007249924737215,7.91956082663536
1761141619505634600,6.294634521484375,-15.588298634231089,-11.978513561844824,4.602150388599932
1761141619515693600,6.304693603515625,-13.921408209061623,-8.763354999276995,2.70564749020189
1761141619525753600,6.314753662109375,-11.072816767519711,-5.896096851187944,1.8629349753171205
1761141619535812600,6.3248125,-8.702927126321196,-4.542197147418558,0.67313657720685
1761141619545871600,6.33487158203125,-6.996175815406441,-3.7009953293576836,0.13768003946244717
1761141619555930600,6.3449306640625,-5.7617462484091515,-2.910994121702015,0.7410746796622872
1761141619565990700,6.35499072265625,-4.46450746627748,-2.4329744584038853,1.3521882236763834
1761141619576049700,6.365049560546875,-2.513548755070567,-2.0149235261172054,1.2497013704091309
1761141619586108700,6.375108642578125,-0.39169571706354617,-2.5182304831460116,0.5258937596291303
1761141619596168400,6.38516845703125,1.57040982657969,-4.261637454023957,-0.21201251913011074
1761141619606227700,6.395227783203125,3.4997061565548178,-2.807293216469884,0.2823705422088504
1761141619616286500,6.405286376953125,5.317427194660902,0.5730217137679458,-0.02197743853032589
1761141619626345700,6.415345703125,5.9838125440418715,2.698082315644622,-2.437836511482298
1761141619636405500,6.425405517578125,5.888310435095429,3.399973278170824,-4.869571783480048
1761141619646464500,6.435464599609375,6.9792895625352855,2.8931232417076824,-6.505441631963849
1761141619656523500,6.4455234375,8.067757583937048,2.6097674878537656,-6.339741951197386
1761141619666582500,6.45558251953125,9.681961544057726,3.1629061050221323,-5.091551569873094
1761141619676642600,6.465642578125,11.21810435937643,3.5252146918207403,-5.025753109794855
1761141619686701600,6.47570166015625,11.744621803861856,3.7624519608393308,-5.893152029907703
1761141619696760600,6.485760498046875,11.636509804189204,4.743014611056447,-6.7603533816218375
1761141619706820600,6.495820556640625,11.471085433232783,5.577208596181869,-7.239875266176462
1761141619716879600,6.505879638671875,11.212834310019016,6.658506872084736,-7.925842098861932
1761141619726938400,6.5159384765625,11.158661990326642,8.146211527448893,-8.477780400329827
1761141619736997600,6.52599755859375,10.935749891519546,8.974479045134782,-8.544646197378635
1761141619747057700,6.5360576171875,10.272481212854386,9.297981515938043,-9.018096068543196
1761141619757116700,6.54611669921875,9.61569254385829,9.608597032639384,-9.55854734583497
1761141619767175700,6.55617578125,9.306355961051583,10.014553914767504,-9.542744212025404
1761141619777235500,6.5662353515625,9.557163198000191,10.392294171714783,-9.166909496438503
1761141619787294700,6.576294677734375,10.060658663338423,10.032850618958472,-8.328747192203998
1761141619797353500,6.586353515625,10.486570538258553,8.968935439532995,-6.798301711744069
1761141619807412700,6.596412841796875,10.85452005355358,8.141205097463727,-5.4013376500129695
1761141619817472800,6.60647265625,10.944971308851242,7.7512144307523965,-4.438623083436489
1761141619827531500,6.616531494140625,10.408071586561203,7.3097688866138455,-4.429506880044937
1761141619837590800,6.6265908203125,9.552945288044214,6.95181001945734,-4.650871457149088
1761141619847650600,6.636650634765625,8.87789557069242,6.852450650560855,-4.676964806565642
1761141619857709600,6.64670947265625,8.298271389919519,6.819239285832643,-4.829319852590561
1761141619867768600,6.6567685546875,8.18206259303093,6.613574089902639,-4.988567580738663
1761141619877827600,6.66682763671875,8.01514359960258,6.160240539571642,-4.346636873656511
1761141619887887400,6.676887451171875,7.764720978057384,5.5671273471504445,-3.3813463191121813
1761141619897946600,6.686946533203125,7.40358874156177,4.497252674798667,-1.8769161543965338
1761141619908005400,6.69700537109375,6.501309062203765,3.2855317832157014,-0.3924053266376257
1761141619918065700,6.707065673828125,5.124836584359407,2.2316180655837057,0.12516659484803677
1761141619928124700,6.717124755859375,3.58232189592123,1.6773498598635195,0.27936814552247524
1761141619938183400,6.727183349609375,1.9269091425776481,1.6732824642941355,0.3654875090956688
1761141619948242700,6.73724267578125,0.2913023289442062,1.8457859798565506,0.16290800422132015
1761141619958302500,6.747302490234375,-1.0697457852751016,1.7984096039146185,0.11497662474513053
1761141619968361700,6.75736181640625,-2.2635475738078354,1.2617302463769913,0.5679238061070442
1761141619978420500,6.76742041015625,-3.3790275207757947,0.27307518285810944,1.6669710891902445
1761141619988480500,6.77748046875,-4.770902734935284,-1.1137015391185878,3.3694588974416253
1761141619998539800,6.787539794921875,-6.5316042472243305,-2.7939719626039263,6.90035397298634
1761141620008598500,6.7975986328125,-8.270278636622429,-4.6073342209786174,12.123166362929343
1761141620018657800,6.80765771484375,-11.129483826637268,-6.314986280125379,16.34845415419936
1761141620028717600,6.817717529296875,-14.54648422745466,-7.617695018100738,19.37741034619808
1761141620038776600,6.827776611328125,-17.31387388808131,-7.999668382573128,21.97519864244461
1761141620048835600,6.837835693359375,-19.440476750963924,-7.174371989652514,23.355645284616944
1761141620058894600,6.84789453125,-22.249778969168663,-7.237837038347124,23.351939415836334
1761141620068954400,6.857954345703125,-24.296101257634163,-6.043814885061979,21.795921102702618
1761141620079013600,6.868013671875,-23.968913960838318,-4.8194613063991065,19.39965958740711
1761141620089072400,6.878072265625,-22.412011850607392,-4.0584719659551975,17.49110677025318
1761141620099132400,6.88813232421875,-20.416115096521377,-3.6864538860470053,15.401491283506154
1761141620109191700,6.898191650390625,-18.343828345716,-3.687331837925315,12.496977463734149
1761141620119250400,6.90825048828125,-16.550559611821175,-3.6344735234409566,9.574761983054875
1761141620129309700,6.918309814453125,-14.802958404123782,-3.685714465856552,7.193481763792038
1761141620139369500,6.928369384765625,-12.929426631468534,-3.761879129387438,5.364378915449977
1761141620149428500,6.938428466796875,-10.758671323126554,-3.9201758404210207,3.5981925420090555
1761141620159487500,6.948487548828125,-8.645319571483135,-4.18614674423188,1.9537723073229192
1761141620169547500,6.958547607421875,-7.085717554643749,-4.965882870721817,0.7980114956319332
1761141620179606800,6.968606689453125,-5.914516889497637,-5.968326221096516,0.557627453020215
1761141620189665500,6.97866552734375,-4.2669349759101864,-6.581969575849175,0.5762424293801188
1761141620199724800,6.988724853515625,-2.3110768022239205,-6.443042751196026,0.8912316311210393
1761141620209784600,6.99878466796875,-0.5170961206674576,-5.035675368872284,1.0897034084156154
1761141620219843600,7.008843505859375,0.8556605515241622,-2.6795392354771495,0.3031210692927241
1761141620229902600,7.018902587890625,1.5733318515062331,-0.2687010594271123,-1.6044079577714203
1761141620239962600,7.028962646484375,2.2108535099744797,1.9700893820039926,-4.222224604307115
1761141620250021600,7.039021728515625,3.127622317934036,3.5360061349481344,-6.755763715744018
1761141620260080600,7.04908056640625,4.8274113886207335,4.24150827370882,-8.276164187529682
1761141620270140700,7.059140625,7.16663934957385,4.71540647316277,-8.74239988953173
1761141620280199400,7.069199462890625,9.299656755673885,5.3985576639056205,-8.54211872472763
1761141620290258700,7.0792587890625,10.75244733404517,5.6134507069081065,-7.5117977718681095
1761141620300317400,7.0893173828125,11.841604506754875,4.933093530797958,-6.371934494271874
1761141620310377500,7.09937744140625,12.486507507646083,4.259204673919082,-6.1427855469018215
1761141620320436500,7.1094365234375,12.615132718515396,4.795364099235832,-6.51142479802668
1761141620330495500,7.11949560546875,12.110573423337936,5.638120453262329,-7.2264575661987065
1761141620340555800,7.1295556640625,11.312350330781936,6.257939281779527,-7.904007868194579
1761141620350614500,7.139614501953125,10.131321514582634,6.629668315613269,-8.00428844358921
1761141620360673800,7.149673828125,9.12325272554159,6.568329757553339,-7.644846644398569
1761141620370732500,7.159732666015625,8.211525418880582,6.403991428267956,-7.091146593955159
1761141620380792600,7.16979248046875,7.5871502422332755,6.157770350065827,-6.569160363158583
1761141620390851600,7.1798515625,7.384270877629518,5.794198319202661,-6.002611352536082
1761141620400910600,7.18991064453125,7.454768309178948,5.340191984176635,-5.354930703625083
1761141620410970600,7.199970703125,7.603277201169729,5.019087222164869,-4.883878541252017
1761141620421029600,7.210029541015625,7.672742951583862,5.012244808924198,-4.571649744135141
1761141620431088600,7.220088623046875,7.65329473927021,5.103415026146173,-4.621300202488899
1761141620441147600,7.230147705078125,7.427489257109165,5.1826867157816885,-4.945493578165769
1761141620451207700,7.240207763671875,7.101165883666276,5.290680642032623,-5.1179801425933835
1761141620461266400,7.250266357421875,6.770313634622097,5.291100328749418,-5.176117858785391
1761141620471325700,7.26032568359375,6.647735302701592,5.272649310779571,-5.168189403873682
1761141620481385500,7.270385498046875,6.614253888860344,5.351943212246894,-5.04944728911519
1761141620491444500,7.280444580078125,6.7188499893665306,5.4512698479175565,-5.042755682522058
1761141620501503500,7.29050341796875,6.948074924582243,5.613882084062695,-5.074601604115963
1761141620511562500,7.3005625,7.086701889505982,5.701204393684864,-5.328260723364353
1761141620521622800,7.310622802734375,7.244034139421582,5.564875184309482,-5.713689781248569
1761141620531681500,7.320681640625,7.399985164111852,5.4741953809529535,-6.081253512096405
1761141620541740500,7.330740478515625,7.437339619994163,5.441892947763204,-6.386294443535804
1761141620551800600,7.340800537109375,7.286299748221039,5.241629318615794,-6.191009187322854
1761141620561859600,7.350859619140625,6.870815743812918,4.603502095469832,-5.743766939604282
1761141620571918600,7.360918701171875,5.79390255112648,3.593340133541822,-4.708900160008668
1761141620581977600,7.3709775390625,3.6919203347593545,2.1012898501887918,-3.4344302590459583
1761141620592037600,7.38103759765625,1.3691127627313135,0.6240358616903424,-1.307740302401781
1761141620602096600,7.3910966796875,-1.5196318255007266,-0.4865019527003169,0.566587004545331
1761141620612155600,7.40115576171875,-4.512763839924335,-1.3074690842449663,0.08026274649947882
1761141620622215400,7.41121533203125,-5.630690595522522,-1.515074600587785,-1.4445353757232426
1761141620632274700,7.421274658203125,-6.245533389192819,-2.1992343838512896,-1.355639240913093
1761141620642333400,7.43133349609375,-8.696703721761702,-4.741273028086126,3.3103166803821917
1761141620652393500,7.4413935546875,-13.150318622624873,-7.669453262388706,12.904918797677755
1761141620662452700,7.45145263671875,-18.9623319999814,-8.840079342517257,23.098387848615644
1761141620672511500,7.461511474609375,-25.837602385115623,-7.957305743139981,28.468918856954573
1761141620682570800,7.47157080078125,-31.02239571778774,-6.315252822107076,28.713328501820563
1761141620692630500,7.481630615234375,-31.98524121726751,-4.981512401530146,26.0495827555418
1761141620702689500,7.491689453125,-30.692449477672575,-3.819567640507221,22.542841878044605
1761141620712748500,7.50174853515625,-27.265051601481435,-2.6264026885733007,19.193138651430605
1761141620722808600,7.51180859375,-22.710428979992866,-1.852904287429154,15.732347039681672
1761141620732867600,7.52186767578125,-18.54233899371624,-2.021803202628344,11.869245377874373
1761141620742926600,7.531926513671875,-15.26099209496975,-2.4284189870566126,8.878092554569244
1761141620752985600,7.541985595703125,-12.521159134310484,-2.3831433827862143,6.707557026457786
1761141620763045600,7.552045654296875,-10.718294889074564,-2.073157103899121,4.6793481945708395
1761141620773104600,7.562104736328125,-9.037454264485836,-1.7704741337627172,2.526538585025072
1761141620783163600,7.57216357421875,-7.199603461542726,-1.4866636218786238,0.4382116767838597
1761141620793223700,7.5822236328125,-5.430222383713722,-1.2732841983094811,-0.8674632175207138
1761141620803282400,7.592282470703125,-3.267742736285925,-0.9883384718503803,-1.5361173886165023
1761141620813341700,7.602341796875,-0.7691232547998428,-0.6564179359875619,-2.088045168690383
1761141620823400400,7.612400390625,1.2542840220242737,-0.29841106497086584,-2.9518098239541053
1761141620833460000,7.6224599609375,3.2078561305999753,0.09073167967423797,-3.7706945962667464
1761141620843519000,7.63251904296875,4.984878663092851,0.6276606280587613,-4.6912885154724115
1761141620853577700,7.64257763671875,6.35784225603342,1.2360896091639995,-5.511619394940138
1761141620863638000,7.652637939453125,7.746845714148878,1.9643825486645101,-6.129931326025724
1761141620873697000,7.662697021484375,8.840441161566972,2.4317823260098694,-6.505384933340549
1761141620883756000,7.672756103515625,9.77376830561757,2.7438226148173213,-6.7527662874937056
1761141620893816000,7.682816162109375,10.596907228243351,3.023571576350927,-6.848980928623676
1761141620903874800,7.692874755859375,11.059030234229564,3.155733144652843,-7.061963169568776
1761141620913934000,7.70293408203125,11.275756922399998,2.9480180304557084,-7.335771927398443
1761141620923992800,7.712992919921875,11.528241152650118,2.785660645854473,-7.4731111905992025
1761141620934052900,7.723052978515625,11.703861923450232,2.7528040859133003,-7.53410254265666
1761141620944112000,7.733112060546875,11.754527111804485,2.664335528865456,-7.424294260460138
1761141620954171000,7.7431708984375,11.662411138164996,2.732433498057723,-7.086829899799823
1761141620964231000,7.75323095703125,11.24495963307619,2.8086548602119086,-6.795104961529374
1761141620974290000,7.7632900390625,10.637828436696529,2.9125024804383512,-6.554044627091288
1761141620984349000,7.773348876953125,10.125056608968972,3.222670837894082,-6.419060402584075
1761141620994408000,7.783407958984375,9.588321137329935,3.5564407279506325,-6.413845298284292
1761141621004468000,7.793468017578125,9.086107528495788,3.6845033365011215,-6.572400367993116
1761141621014526700,7.803526611328125,8.702202903699874,3.8337779521673916,-6.520333496147394
1761141621024586000,7.8135859375,8.42042769703567,4.030088459774851,-6.350636270177364
1761141621034646000,7.82364599609375,8.147306921470165,4.109560348157585,-6.1705579354465
1761141621044705000,7.833705078125,7.958082572731375,4.0118616059497,-5.735068669363856
1761141621054764000,7.843763916015625,8.07855370323956,4.009446946023404,-5.2327399097174405
1761141621064823800,7.85382373046875,8.286977257966996,3.938788478693366,-4.936375621208549
1761141621074883000,7.863883056640625,8.256431313055753,3.622764380946755,-4.777326630502939
1761141621084941800,7.87394189453125,8.393928981688617,3.4896488729208706,-4.557035235588252
1761141621095001000,7.8840009765625,8.41595142840445,3.5684199195578694,-4.347798610912263
1761141621105061000,7.89406103515625,8.389734452608227,3.6219963191837072,-4.40994673178941
1761141621115119900,7.904119873046875,8.261053712159395,3.5933000937923785,-4.484678732168674
1761141621125179100,7.91417919921875,7.93194626095593,3.299191767516732,-4.3405102074697615
1761141621135239000,7.924239013671875,7.571537662559748,2.8859198862001296,-3.843818576927483
1761141621145298000,7.9342978515625,7.1351160840630525,2.4246616803497076,-3.0082518421441313
1761141621155357000,7.94435693359375,6.690028968551754,1.9822838237971065,-2.4298297306373713
1761141621165417000,7.9544169921875,5.917898348629475,1.4565484696000814,-1.9171230771005152
1761141621175476000,7.96447607421875,4.74231961452961,1.2607304216846822,-1.3317714585915208
1761141621185535000,7.974534912109375,3.3840345352828503,1.5852479147493839,-1.4008198603764175
1761141621195594000,7.984593994140625,2.5315415078788996,1.7100769482061267,-2.1092218122318385
1761141621205654000,7.994654052734375,1.7447604313135145,1.2183268657192587,-3.543135840697586
1761141621215713000,8.004713134765625,0.8754074545234442,1.018811716851592,-5.623256061607599
1761141621225771800,8.014771728515624,0.4987129072368145,1.4098095147788523,-7.432848153793811
1761141621235832000,8.02483203125,-1.4465905546873807,1.1567018919333816,-7.6955848979890344
1761141621245890800,8.034890869140625,-5.694455503946543,-0.7144169743612409,-4.1167701334059235
1761141621255950000,8.0449501953125,-10.627912607359885,-3.019399843624234,4.61253120509982
1761141621266010000,8.055010009765626,-16.887527128875256,-4.758265956202149,15.479299330329894
1761141621276068900,8.06506884765625,-24.937747302556037,-5.351985882344842,25.170627837669848
1761141621286128000,8.075128173828125,-31.772695029652116,-4.706481408429146,29.820167461693284
1761141621296187000,8.085186767578126,-37.445318641018865,-2.9638813700199127,28.878989019620416
1761141621306247000,8.095246826171875,-40.695531565833086,-1.7690294879123567,26.350756490159032
1761141621316306000,8.105305908203125,-40.92557132456302,-2.108703487446159,25.79770993518829
1761141621326365000,8.115364990234376,-37.94315359637737,-2.607563840329647,26.06415371720791
1761141621336425000,8.125425048828125,-32.261147239637374,-2.8856916304022073,23.144698348891733
1761141621346484000,8.13548388671875,-25.849461165213583,-2.736129429966211,16.53357574379444
1761141621356543000,8.14554296875,-20.757669941365716,-2.556348616877198,9.119959529215096
1761141621366603000,8.15560302734375,-16.453789674896,-2.302588959863782,4.758975273515284
1761141621376662000,8.165662109375,-12.939776176047324,-2.8255829063981768,2.9367785512998696
1761141621386720800,8.175720703125,-10.161679243445397,-3.4350118583261966,2.133647228436172
1761141621396780000,8.185780029296875,-7.665822212409973,-3.2960107993930574,1.590205683287233
1761141621406839800,8.19583984375,-5.390974661430716,-2.382869534280896,0.829282247686386
1761141621416899000,8.205899169921874,-3.1236919927477835,-1.741088610932976,0.2640405202701688
1761141621426957800,8.215957763671875,-0.043459202498197555,-1.298922497434914,0.1720652702756226
1761141621437017900,8.226017822265625,3.7155163144022225,-0.9254534880660473,0.05855170382037758
1761141621447077000,8.2360771484375,7.571510190030932,-0.5923724570564926,-0.5378931172415614
1761141621457135900,8.246135986328126,10.64551139241457,-0.027497955517470835,-1.2998697151571512
1761141621467196000,8.25619580078125,12.811768220293521,0.406744817635417,-1.2133078685134648
1761141621477255000,8.2662548828125,13.930056794941425,0.811226220383495,-0.8709215412810445
1761141621487314000,8.27631396484375,14.342500116479396,1.2392406205408275,-1.1799305726338176
1761141621497373000,8.286373046875,13.981568370991944,1.5024422057688236,-1.6461156404271722
1761141621507433000,8.296432861328125,13.146956452715395,1.3490309286892412,-2.3808801140293476
1761141621517492000,8.306491943359376,12.737220636570452,1.561231956128776,-3.3730002233102914
1761141621527551000,8.316551025390625,13.670730151450634,2.7941087407261134,-4.082072621773183
1761141621537611000,8.326611083984375,14.072449834400414,3.57121627227813,-4.646952530139685
1761141621547669800,8.336669677734376,13.820283584058284,3.13248261744678,-5.239695135682821
1761141621557729000,8.34672900390625,13.906369629883766,2.605232474772632,-5.026743874397874
1761141621567788800,8.356788818359375,13.969598531734942,2.2149010317996143,-3.9430002511695026
1761141621577848000,8.36684814453125,13.54919285301566,1.638530592125654,-3.303121508181095
1761141621587907000,8.376906982421875,13.133095100623368,1.1696276436757296,-2.782751188148558
1761141621597966000,8.386966064453125,13.205205228066443,0.539435232117027,-2.3397364949971435
1761141621608026000,8.397026123046874,13.406357915008067,-0.148565444483608,-2.1786190274544057
1761141621618084900,8.4070849609375,13.262219493186473,-0.3270527106307447,-1.5024796151697635
1761141621628144000,8.41714404296875,13.021929558598995,-0.1904378161817789,-0.7553802683904767
1761141621638204000,8.427203857421874,12.826170839655399,0.25883462219014763,-0.2463791183080524
1761141621648263000,8.437262939453126,12.575578122240303,0.8019085030704737,-0.1412001764126122
1761141621658322000,8.447322021484375,12.223895851135254,1.5069740039795636,-0.4028317358449101
1761141621668382000,8.4573818359375,11.94038169184923,2.2668501224845645,-0.8055009015392511
1761141621678441000,8.46744091796875,11.8348813359797,2.895255577561259,-1.4051517521008847
1761141621688500000,8.4775,11.711521498292685,3.4302129336118696,-1.7301392007648944
1761141621698559000,8.48755908203125,11.505486884528398,3.558192832314968,-1.7052600494436918
1761141621708618800,8.49761865234375,11.416982087123394,3.570082299812138,-1.75936266490072
1761141621718678000,8.507677978515625,11.315623653364181,3.593450315918028,-1.832654549474269
1761141621728736800,8.51773681640625,11.22108775910139,3.370686977931857,-1.9097803131222724
1761141621738797000,8.527797119140626,11.150253058421612,3.133873779544234,-2.125056510223448
1761141621748856000,8.53785595703125,11.070454130041599,3.1714158669531343,-2.505420393672585
1761141621758915000,8.5479150390625,10.944212599438428,3.1675232434287666,-2.631675952801108
1761141621768975000,8.55797509765625,10.417519798386097,2.9687504373610016,-2.775138667318225
1761141621779033900,8.568033935546875,9.926162514609098,3.01620923088938,-2.618173204888403
1761141621789093000,8.578093017578125,9.07433642668128,2.9586706496343016,-2.4196181332245468
1761141621799153000,8.58815283203125,7.648863478824496,2.513994745272398,-2.6925159136891366
1761141621809212000,8.5982119140625,6.070938454309106,2.182321242973208,-3.122427087378502
1761141621819271000,8.60827099609375,4.771946691030264,1.862175096860528,-3.219326788163185
1761141621829329400,8.618329345703126,3.49871363838613,1.4188152435332535,-3.2347330316096543
1761141621839389400,8.628389404296875,2.3823265134453773,0.7838190118893981,-3.170359051376581
1761141621849448400,8.638448486328125,1.395300512433052,-0.17216478512734174,-3.1166648705899713
1761141621859507500,8.648507568359374,-0.36054654556214805,-0.7230208443164825,-3.4174653879806396
1761141621869567500,8.6585673828125,-2.38739431822896,-0.8283417519658803,-4.280314974226057
1761141621879626500,8.66862646484375,-4.528113384747505,-1.2667086193114518,-5.582702517423034
1761141621889685500,8.678685546875,-6.306698344251513,-1.7847038807757198,-6.194688752618432
1761141621899745500,8.68874560546875,-7.80879802019298,-2.506241062405705,-4.415449713119864
1761141621909804300,8.69880419921875,-11.03535242152214,-2.932229509693384,1.2938491396933793
1761141621919863600,8.708863525390624,-16.452310834515092,-3.166711634784937,10.428522838437557
1761141621929923600,8.718923583984376,-23.664845673823354,-2.962086303296685,21.711282333076
1761141621939982300,8.728982421875,-33.99416579523086,-1.8300291694067417,31.273193017864227
1761141621950041600,8.73904150390625,-45.80924703671932,-0.02194558208733797,37.04955523612499
1761141621960100400,8.749100341796876,-55.04172819874287,1.65235804194808,38.22166191020012
1761141621970160400,8.759160400390625,-58.82497832520008,1.3532228274211286,33.92856841068268
1761141621980219400,8.769219482421875,-54.06511837780475,3.116702864512801,31.892914815747737
1761141621990278400,8.7792783203125,-43.1125529605627,4.132262886092066,27.244633082830905
1761141622000338400,8.78933837890625,-30.96648269190788,3.5256793867230414,20.185044241178034
1761141622010397400,8.7993974609375,-21.128324623966215,1.6735272328354418,11.24423248784542
1761141622020456400,8.80945654296875,-12.781961111050844,0.07616532111801207,3.506711066880822
1761141622030516500,8.8195166015625,-5.922304474633932,-0.9019703211478889,-1.3161799217060208
1761141622040575500,8.829575439453125,-0.1422708743840456,-1.5574343174114822,-3.4793969434976577
1761141622050634500,8.839634521484374,5.476546327993273,-2.448319180921465,-4.077383294913172
1761141622060693500,8.849693603515625,10.349504831302166,-3.55913975777626,-3.480746312279999
1761141622070753500,8.85975341796875,14.04107153031826,-4.018419064769149,-1.7159112073175609
1761141622080812500,8.8698125,16.35449694149494,-3.37398251234591,-0.26150572282923384
1761141622090871600,8.87987158203125,16.823054364442825,-2.342081596818566,0.0897705795571208
1761141622100931300,8.889931396484375,16.113330224072932,-1.1195775915451347,-0.5489658615283668
1761141622110990600,8.899990478515624,14.790965183991194,0.060387248684465884,-1.2815392548270523
1761141622121049300,8.91004931640625,14.08096164215803,0.8177883553780615,-2.0226552894130347
1761141622131109400,8.920109375,13.93504393570423,1.0102220215521753,-2.3689909387931225
1761141622141168400,8.93016845703125,14.21587864664793,0.8366380172766744,-2.002142516607791
1761141622151227400,8.940227294921876,14.295880988645553,0.22923289932645857,-2.0481693776369094
1761141622161287400,8.950287353515625,13.985278915947674,0.21460217029713094,-1.772052342864871
1761141622171346400,8.960346435546874,13.653475065267084,1.1077066826179622,-1.546720323434472
1761141622181405400,8.970405517578126,13.502832083857058,2.177168244124204,-2.053936855122447
1761141622191464400,8.98046435546875,13.902618168395756,2.729717809358239,-2.873153343607485
1761141622201524500,8.9905244140625,14.461284316813945,2.974658784621954,-3.508726790617406
1761141622211583500,9.00058349609375,14.388216742515564,3.3850410819768904,-3.769874512055516
1761141622221642500,9.010642578125,13.949678025734423,3.4606723692834374,-3.8872979454308747
1761141622231702500,9.02070263671875,13.289915309363602,3.460089308698475,-3.6569773239329457
1761141622241761500,9.030761474609376,12.443166378569602,3.578612520009279,-3.470880751825869
1761141622251820500,9.040820556640625,11.523750855493544,3.8548917596057053,-3.3504005612283945
1761141622261880300,9.05088037109375,10.675243682855367,4.192384177316725,-3.032578474149108
1761141622271939600,9.060939697265624,9.900267025852203,4.409814922103285,-2.8410163301125166
1761141622281998300,9.070998291015625,9.06247530849576,4.399176331450045,-3.042829526789486
1761141622292058400,9.081058349609375,8.273322826623916,4.596833577491343,-3.2365234221577643
1761141622302117400,9.091117431640624,7.896896574884653,4.762417815184593,-3.0501737520724532
1761141622312176400,9.10117626953125,7.6706895261853925,4.678428449377417,-2.8630782320559023
1761141622322236400,9.111236328125,7.706722962597012,4.6252270205438135,-2.596662799347937
1761141622332295400,9.12129541015625,8.052324452483653,4.496886471834778,-2.1970427190259096
1761141622342354400,9.1313544921875,8.516018068787455,4.177992956131696,-1.9175763738259672
1761141622352413400,9.141413330078125,9.009830344501138,3.8984877402260896,-1.7621575563162564
1761141622362473500,9.151473388671874,9.487434997257589,3.801557059781253,-1.8872297508791087
1761141622372532500,9.161532470703126,9.852039293777942,3.6680271257355805,-2.175825743474066
1761141622382591500,9.171591552734375,9.88773955271244,3.5109900593742727,-2.325604509270191
1761141622392651500,9.181651611328125,9.882960501742362,3.293575681200623,-2.506914723883569
1761141622402710500,9.19171044921875,9.761491592368483,3.2166753968715667,-2.7085008338063954
1761141622412769500,9.20176953125,9.44466903772056,3.091245182651281,-2.3994337155908343
1761141622422829300,9.211829345703125,8.679815715324878,2.680759132660925,-2.0691151350319386
1761141622432888600,9.221888671875,7.502925314104557,2.050468886750936,-1.4711939578071236
1761141622442947300,9.231947265625,6.158221016442775,1.6564952878832817,-1.0976427500475197
1761141622453007400,9.24200732421875,4.596469712615013,1.4851158079147337,-1.4563573309421538
1761141622463066400,9.25206640625,2.5956436854332683,0.8229825630202889,-3.052010904371738
1761141622473125400,9.26212548828125,0.27756080383956433,-0.1522305428624153,-5.203867450976372
1761141622483185400,9.272185302734375,-2.423284546777606,-1.1637874662801622,-6.4564353167325255
1761141622493244400,9.282244384765624,-6.081271632274985,-2.660578222158551,-6.179036425456404
1761141622503303400,9.292303466796875,-10.646128647530078,-4.608568438948691,-2.844943148167431
1761141622513362400,9.302362548828125,-14.963328998821973,-6.6348167844176285,2.1182794173039494
1761141622523422500,9.31242236328125,-21.36603097180128,-7.237290510380268,5.761625836899876
1761141622533481500,9.3224814453125,-26.62896552877426,-5.719855318140983,8.08642312144041
1761141622543540500,9.33254052734375,-29.882566342461107,-4.36898139193356,7.693879847636818
1761141622553600500,9.3426005859375,-32.72863615657091,-3.1832708476588127,5.569930129611492
1761141622563659500,9.352659423828126,-31.60027042454481,-1.8308774567991495,3.576383738043904
1761141622573718500,9.362718505859375,-28.775194298624992,-1.6785449148669838,3.4286724261716004
1761141622583778300,9.3727783203125,-26.00194889770746,-2.195118326834589,4.278188775852322
1761141622593837600,9.382837646484376,-23.212215303325653,-2.085653012856841,4.5019455087900155
1761141622603896300,9.392896240234375,-19.9494047627449,-1.6502059784807264,3.907317527891695
1761141622613956400,9.402956298828125,-16.467552827310563,-1.2034095748335123,2.8549089541256425
1761141622624015600,9.413015625,-13.538921634370087,-0.7142079347204416,2.148755073457956
1761141622634074400,9.423074462890625,-10.729280393469333,-0.2041712310452014,1.7993930619940162
1761141622644134400,9.433134521484375,-8.196828200486301,0.2839295351538807,1.735154983100295
1761141622654193400,9.443193359375,-5.529736066389083,0.533147749345377,2.0919299011692405
1761141622664252400,9.45325244140625,-2.8502444694459435,0.6378660149265081,3.1690307253822683
1761141622674311400,9.4633115234375,-0.6941729354947805,0.8776051106981932,4.765490062236785
1761141622684371500,9.473371337890624,0.2562982355803251,1.017240668142587,5.46234010798633
1761141622694430500,9.483430419921875,0.9598445640981197,1.0947303697321564,4.578147289460897
1761141622704489500,9.493489501953125,1.7589315800070762,1.2063844259258358,3.1847634243041276
1761141622714549500,9.503549560546874,2.264756365075707,1.3548708868891,2.1324226550772787
1761141622724608500,9.5136083984375,3.020727292835712,1.5159797327339648,1.0637556049495935
1761141622734667500,9.52366748046875,4.474828369283676,1.2476308477453886,0.2953850682131946
1761141622744727300,9.533727294921874,5.690175634670258,1.0171901800643652,-0.6344260305404663
1761141622754786600,9.54378662109375,6.77681585612297,0.7137898554388433,-1.1316010606855154
1761141622764845300,9.55384521484375,8.062562937903405,0.6837031255371868,-1.493622501105815
1761141622774905300,9.5639052734375,9.362303473722934,0.7638876922339201,-2.11379774184525
1761141622784964600,9.573964599609376,10.419963099884987,0.7685051229014992,-2.824686249819398
1761141622795023400,9.5840234375,10.97203701043129,0.9609569092541933,-3.2039202524557706
1761141622805083400,9.59408349609375,11.230539478057622,1.1803094158835707,-3.093013361367583
1761141622815142400,9.604142333984376,11.226388203597068,1.2593418899357318,-2.5727912176340815
1761141622825201400,9.614201416015625,10.961941148352622,1.3618620609506964,-2.109708426705003
1761141622835261700,9.62426171875,10.64388759060502,1.5428928741008043,-1.8994314991958439
1761141622845321700,9.63432177734375,10.33528575181365,1.6372892137624322,-1.7425499156571924
1761141622855380500,9.64438037109375,10.10937739380002,1.795009586212784,-1.689423159494996
1761141622865439700,9.654439697265625,9.774929166090487,1.958607180133462,-1.808307897594571
1761141622875499500,9.66449951171875,9.833519302225112,2.0477605045750735,-2.089878083205968
1761141622885558500,9.67455859375,9.581661679440737,2.1120459297418592,-2.251198379844427
1761141622895617500,9.684617431640625,10.12284127100706,2.2985367618635295,-1.9045191777236758
1761141622905677600,9.694677490234374,10.063093781530856,2.5716937777861952,-2.174598685897142
1761141622915736600,9.704736572265626,9.378604620182514,2.4635133890524505,-1.7007845114648341
1761141622925795600,9.714795654296875,9.169720462206005,2.406637363359332,-0.9275829013101756
1761141622935855600,9.724855712890625,8.697222777199745,2.3105437182605266,0.17573899035230278
1761141622945914600,9.73491455078125,8.286330776757001,2.48519535176754,1.2274433613717555
1761141622955973600,9.7449736328125,7.579231724193692,2.8502035529136656,1.7125114818766711
1761141622966033700,9.75503369140625,6.907597368243336,3.334870106880367,2.054930542334914
1761141622976092700,9.7650927734375,6.267884921732545,3.4499171665132042,1.8332026848763225
1761141622986151700,9.775151611328125,6.426939173135161,3.2207465918332336,1.0441785786245017
1761141622996211500,9.78521142578125,7.487957462075352,3.018374299968779,-0.06456758484272286
1761141623006270700,9.795270751953124,9.24097134247124,3.701611999951303,-0.72785812827982
1761141623016329500,9.80532958984375,9.441354214084148,3.583045826281607,-0.8717451326236129
1761141623026389500,9.815389404296875,8.464270930415392,2.683608969134092,-0.7927673844333738
1761141623036448500,9.825448486328124,6.463052104523777,1.480993759548664,-0.5779921591242775
1761141623046507500,9.835507568359375,3.593872632983327,-0.36629765643477435,-0.7914039140604436
1761141623056566500,9.84556640625,0.2682821033626795,-2.074089708574116,-1.2127828947912902
1761141623066626600,9.85562646484375,-3.421433414828777,-3.3202897928640245,-1.712857664965838
1761141623076685600,9.865685546875,-6.128934131681919,-4.3453065018355845,-2.084843011648208
1761141623086744600,9.87574462890625,-8.514837334570288,-4.965742585468292,-1.8866469825550913
1761141623096804600,9.8858046875,-11.23151212248206,-5.734651905256509,-2.0076507586352528
1761141623106863600,9.895863525390626,-13.390430862557887,-6.61890726762414,-2.4523782470539213
1761141623116922600,9.905922607421875,-14.994267742443084,-6.849674171584844,-2.3001344063185156
1761141623126982700,9.915982666015625,-17.080038244199752,-6.498853485745191,-1.8510912466578184
1761141623137041700,9.926041748046876,-18.703202924889325,-5.9066351963371035,-1.28951169501096
1761141623147100700,9.9361005859375,-19.6275085580945,-5.471680767783522,-0.30528745354637504
1761141623157160400,9.946160400390625,-19.018988537704942,-4.958937581628561,0.24879502034336326
1761141623167219700,9.9562197265625,-16.934930685085057,-4.531628991653025,0.3320109175600111
1761141623177278500,9.966278564453125,-14.759559991902112,-4.104247044180333,0.19534896909892557
1761141623187338500,9.97633837890625,-12.392169181782007,-3.851256033451855,-0.9656605569005012
1761141623197397500,9.9863974609375,-9.470493214806913,-3.399633963213861,-2.1823029766641557
1761141623207456500,9.99645654296875,-6.517885518473387,-2.8281799371540544,-2.914747044494748
1761141623217516500,10.0065166015625,-3.5141198818325994,-2.3833277994424105,-3.0167990134760734
1761141623227575600,10.016575439453124,-0.9879594824701547,-1.8984239295884966,-2.5041940667480227
1761141623237634600,10.026634521484375,0.722721569108963,-0.973109703862667,-1.5858970263078809
1761141623247694600,10.036694580078125,1.5967694257169962,-0.3379813702717423,0.04007321332171559
1761141623257753600,10.046753662109374,1.965513306260109,0.19157383447438478,1.7394186318941414
1761141623267812600,10.0568125,2.0024521670788524,0.8451175301998853,2.9924273732855915
1761141623277871600,10.06687158203125,1.5279665231257675,1.584242244838178,3.4072903231859204
1761141623287931600,10.076931640625,0.921057445064187,1.9277505618378519,2.778307360482216
1761141623297990700,10.08699072265625,1.1224193908423186,2.070102977025509,1.8375243474677203
1761141623308049700,10.097049560546875,1.8335943145424127,1.8828893835872411,1.2352142876341938
1761141623318109400,10.107109375,2.8650884028345347,1.4488810037121176,0.7391175542451441
1761141623328168700,10.117168701171876,4.1144893289923665,1.4278124967202543,0.18675094436258077
1761141623338227500,10.1272275390625,5.215785852307081,1.4306906825050711,-0.23567586492076514
1761141623348287500,10.13728759765625,5.910291380757093,1.3492173911720513,-0.33768041456378994
1761141623358346800,10.1473466796875,6.255293735706806,1.4317697099134326,-0.09853818870671092
1761141623368405500,10.157405517578125,6.3342527061313385,1.4478300333544611,0.09637293696422129
1761141623378465500,10.167465576171875,6.345156961983442,1.6741446340814232,0.11997903614230453
1761141623388524500,10.177524658203126,6.2846209524780505,2.09777775041461,0.012283690979145466
1761141623398583600,10.18758349609375,6.194069159415364,2.3795453582942483,-0.05701419205479324
1761141623408643600,10.1976435546875,5.971086917981505,2.782441683807969,0.05589695152789354
1761141623418702600,10.20770263671875,5.647771494182944,3.1205460959374904,0.04105868069510907
1761141623428761600,10.21776171875,5.414640783700347,3.346273252165317,-0.20338786211516707
1761141623438821600,10.227821533203125,5.268811340051889,3.4317280143499374,-0.4088404382077977
1761141623448880600,10.237880615234374,5.2581894082725045,3.345333925488591,-0.4821887291437015
1761141623458939600,10.247939697265625,5.432388037315011,3.0887346611350774,-0.4278948654308915
1761141623468999700,10.257999755859375,5.860249877259135,2.807900242452323,-0.23604089884087442
1761141623479058400,10.268058349609374,6.048267772817612,2.5023686048865317,0.2032131996680051
1761141623489117700,10.27811767578125,5.6937020552307365,2.114855141943693,0.6612419951431453
1761141623499177700,10.288177734375,5.034543734493852,1.5806255156457423,0.7123784542709588
1761141623509236500,10.298236572265624,4.1708945223033425,0.9177522660389542,0.7103421992029995
1761141623519295700,10.308295654296876,2.7760587047725913,0.5828802599593996,1.0830041299726814
1761141623529355500,10.31835546875,0.8097381737828254,0.08101561069339513,1.57281089637205
1761141623539414500,10.32841455078125,-1.134050207403302,-0.647410599797964,2.5207638010159132
1761141623549473500,10.3384736328125,-3.4371979701936244,-0.9343240461334585,3.126387807703018
1761141623559532500,10.348532470703125,-5.211276265928149,-1.139119473491609,3.1476977222353217
1761141623569592600,10.358592529296875,-6.271621185651421,-1.1344669715106486,3.219096778799593
1761141623579651600,10.368651611328126,-6.910564401355385,-1.0870847503498196,2.917012359078228
1761141623589710600,10.378710693359375,-7.032363565596937,-1.256236032874882,2.1466230298653244
1761141623599770600,10.3887705078125,-6.511304971039295,-1.56844203363806,1.241608957107365
1761141623609829600,10.39882958984375,-5.781973628401756,-1.4810399367779492,0.6902841844279318
1761141623619888600,10.408888671875,-5.232109795120358,-1.2373685430586336,0.08249393961764871
1761141623629948700,10.41894873046875,-5.151545727586746,-1.3099176464408635,-0.4699138059929013
1761141623640007400,10.42900732421875,-5.829471292635798,-0.9357109704472124,0.004551598889753222
1761141623650066700,10.439066650390625,-7.294156891462206,0.24616627927497028,1.453014011863619
1761141623660126700,10.449126708984375,-8.667138604581355,0.8694855171285569,2.4367168598026034
1761141623670185500,10.459185546875,-8.781151937252282,1.1394221096999944,2.4718799431204794
1761141623680244700,10.46924462890625,-7.284886374291777,1.093541890599951,1.923192460142076
1761141623690304500,10.479304443359375,-4.616624611893296,0.7012341060526669,1.3323276311695575
1761141623700363500,10.489363525390624,-1.7075328166812658,0.3269917011585086,0.40407223742529746
1761141623710422500,10.499422607421875,1.2378332379609345,-0.2590289026532322,-0.5525264766193926
1761141623720482600,10.509482666015625,3.8188317274481056,-0.9250339474797248,-1.4084863033510744
1761141623730541600,10.51954150390625,5.945342820394039,-1.5474479070566594,-2.201074751020968
1761141623740600600,10.5296005859375,7.40810183507204,-1.989893275887519,-2.978689063051343
1761141623750660600,10.53966064453125,8.177079543921352,-2.137160497254133,-3.6492630962938066
1761141623760719600,10.5497197265625,8.358656008255481,-2.115901436126232,-4.248545917260647
1761141623770778600,10.559778564453126,8.239461473554373,-2.148634077426791,-4.748919451186061
1761141623780838400,10.56983837890625,8.001481569474935,-2.2618016069233415,-5.025836111903191
1761141623790897700,10.579897705078125,7.615128967005014,-2.414499621167034,-4.890215343058109
1761141623800956400,10.589956298828126,7.25147977925241,-2.5319170631930232,-4.668503267690539
1761141623811016400,10.600016357421875,7.182476385653018,-2.517241179847717,-4.539756476268172
1761141623821075700,10.61007568359375,7.246123220655321,-2.4019372228443623,-4.476272138351201
1761141623831134200,10.62013427734375,7.388839500719309,-2.383124239694327,-4.301873018300533
1761141623841194200,10.6301943359375,7.606989499691128,-2.3240283459946514,-4.079178653897345
1761141623851253200,10.640253173828125,7.7688488716423505,-2.274670733107626,-3.867000422811508
1761141623861312300,10.650312255859374,7.6829335062086574,-2.222045788987726,-3.644283262054622
1761141623871371300,10.660371337890625,7.34566086872816,-2.0187537519298493,-3.4482799207001924
1761141623881431300,10.670431396484375,6.741170542246103,-1.7774202996388078,-3.1878496998816725
1761141623891490300,10.680490234375,6.004290683925151,-1.5535525075420737,-2.8427155352458358
1761141623901549300,10.69054931640625,4.897415483695268,-1.179295051209256,-2.474436349605024
1761141623911609000,10.700609130859375,2.4618092154830693,-0.3201063255589455,-2.0896271771848203
1761141623921668400,10.71066845703125,-0.9475555758893489,0.5846813910972327,-1.61993490498811
1761141623931727000,10.72072705078125,-3.8233167639076706,1.1924621374268085,-0.8410676702871919
1761141623941787100,10.730787109375,-6.028252574270963,1.6889641636811197,-0.1240840603083372
1761141623951846400,10.740846435546874,-7.499202494189142,1.5183397398635745,0.19716829348057507
1761141623961905200,10.7509052734375,-8.742249667406082,0.5804007911685853,0.1617458285741508
1761141623971965400,10.76096533203125,-9.823361480826138,-0.50732364532426,0.4445825269900262
1761141623982024200,10.771024169921875,-11.0679547144413,-1.40924515889436,1.5988504697747528
1761141623992083200,10.781083251953126,-12.354409067708254,-2.191244554141164,3.964668769881129
1761141624002143200,10.791143310546875,-15.203849235033989,-2.6109736487731334,6.2853136109173295
1761141624012202200,10.8012021484375,-19.023760574412346,-1.8207856863737106,7.866839874795079
1761141624022261200,10.81126123046875,-21.49138987435102,-0.24060309218987821,8.363080838960409
1761141624032321300,10.8213212890625,-22.301485775530338,1.3109084110438822,7.639409421780705
1761141624042380300,10.83138037109375,-21.990866167175767,2.669189398637414,6.190238787472247
1761141624052439300,10.841439208984376,-20.458345634007454,3.222791833925247,4.364839469823241
1761141624062499300,10.851499267578125,-17.839030565607548,3.161524295274913,2.701566650629043
1761141624072558000,10.86155810546875,-14.805261420369147,2.8736174539878965,1.611137558287382
1761141624082617300,10.871617431640624,-11.574163530391454,2.3246363948903976,0.7200638942070305
1761141624092677400,10.881677490234376,-8.415218437954783,1.5376483975760638,0.0969873790681362
1761141624102736100,10.891736083984375,-5.259101262420415,0.9214816618256271,-0.27817221373617645
1761141624112795400,10.90179541015625,-2.151068026575446,0.396575378863886,-0.5805050552606582
1761141624122855200,10.911855224609376,0.7712193502962589,-0.12549767169961706,-0.8899588347062468
1761141624132914400,10.92191455078125,3.624735973280668,-0.5361801758438348,-1.0666624323070049
1761141624142973200,10.93197314453125,6.219304138436913,-0.715946448950842,-1.0664468898601829
1761141624153033200,10.942033203125,8.133013607701658,-0.7514530850093811,-1.167665184496343
1761141624163092200,10.95209228515625,9.51044703953266,-0.8318140311863272,-1.1485418202228843
1761141624173151200,10.962151123046874,10.480727657449245,-0.8591933287601917,-0.9138745478227734
1761141624183211300,10.972211181640626,11.050977860677241,-0.8910017678879201,-0.8428149523459374
1761141624193270300,10.982270263671875,11.385406214642524,-0.9208435100525617,-1.0727245088249444
1761141624203329300,10.992329345703125,11.585046158933638,-0.7467498026892543,-1.2882476664245128
1761141624213389000,11.00238916015625,11.645424932050704,-0.4194806728288531,-1.4003215554654598
1761141624223448300,11.0124482421875,11.638692408925294,-0.11572115950211882,-1.5150801535457372
1761141624233507000,11.022507080078125,11.64421847887039,0.15360738417357206,-1.7011382933385668
1761141624243567000,11.032567138671874,11.539652188980579,0.45877647203728555,-1.8365565253488718
1761141624253626400,11.04262646484375,11.24106087207198,0.7547123060010373,-2.0367336452566085
1761141624263685000,11.05268505859375,10.89018056499958,0.9701026310011744,-2.1911796722114083
1761141624273744400,11.062744384765624,10.639323643690346,1.1930053774580358,-2.2183096711993215
1761141624283804200,11.07280419921875,10.158677139019966,1.2987088546842336,-2.2420681479275224
1761141624293863400,11.082863525390625,9.400333052387833,1.1706599823981523,-2.350035916823894
1761141624303923200,11.092923095703124,8.289100825992227,0.7879381376460194,-2.543470430603623
1761141624313982200,11.102982177734376,6.679194855326414,0.24580606766045093,-2.614721310868859
1761141624324041500,11.11304150390625,4.369580526870489,-0.43752340225875375,-2.587436998102069
1761141624334100200,11.123100341796874,1.55407243976295,-1.076600765736401,-2.7196383138924833
1761141624344160300,11.13316015625,-1.3601573028594254,-1.9292977912798523,-3.200036981281638
1761141624354219300,11.14321923828125,-3.025558366253972,-3.017064970935881,-3.702023795622587
1761141624364278300,11.1532783203125,-4.0364118175774815,-3.8176273200944064,-2.068750101111829
1761141624374338000,11.163338134765626,-6.091901747360825,-4.604743035441637,1.4198827266342937
1761141624384397300,11.173397216796875,-8.479992231160402,-4.782331306922435,4.201927373948693
1761141624394456000,11.1834560546875,-10.265327833968401,-4.791549217122793,6.147707805734872
1761141624404516000,11.19351611328125,-11.916928335547446,-3.5953386138826606,8.10609754372537
1761141624414575400,11.203575439453125,-12.461375404477119,-1.698298539867997,8.329066925677656
1761141624424634000,11.213634033203125,-11.330123303359747,-0.22622736083492637,6.423377681261301
1761141624434694400,11.2236943359375,-9.384885307887195,1.006715036344528,4.452866712844371
1761141624444753200,11.233753173828125,-7.283599257090687,2.1760212660461664,3.277811710357666
1761141624454812400,11.2438125,-5.4506140143573285,2.742597164675593,2.412394319450855
1761141624464872400,11.25387255859375,-3.9332448730915783,2.705624109326303,1.7349787497505544
1761141624474931200,11.26393115234375,-2.4204876095354555,2.5748075258925556,1.2588555677235125
1761141624484990500,11.273990478515625,-0.9472960481703281,2.3017058934189376,0.8347997689988463
1761141624495050200,11.28405029296875,0.42579380149841306,1.9703110619306563,0.5772499259222299
1761141624505109200,11.294109130859376,1.8103548932522535,1.5511198735676706,0.4841781128626316
1761141624515168300,11.304168212890625,3.327942645704746,1.341894208677113,0.4685591765135526
1761141624525228300,11.314228271484374,4.941283266994357,1.3150643616795539,0.27575068567767735
1761141624535287000,11.324287109375,6.256876036462187,1.2574769728466868,-0.060308338229358195
1761141624545346300,11.33434619140625,7.2104913507819175,1.171561242086813,-0.49776145173087716
1761141624555406300,11.34440625,7.938408150446414,0.9800159030545502,-0.7768683159686625
1761141624565465000,11.354465087890626,8.475192721924186,0.7382169521436095,-0.6009093992553651
1761141624575524400,11.3645244140625,8.586948631057142,0.5007511350661515,-0.0841093389250338
1761141624585584000,11.374584228515625,8.191337201854585,0.20197949315458535,0.03953209218233823
1761141624595643400,11.384643310546876,7.5628557589322325,-0.0733436147607863,-0.3706123047634959
1761141624605702100,11.3947021484375,6.704100164002179,-0.49236412273198366,-0.6680937607340515
1761141624615762200,11.40476220703125,5.594070883655548,-0.868512726573646,-0.7436332781039178
1761141624625821400,11.414821533203124,4.384064979296922,-0.9514712880283593,-0.7174651829507201
1761141624635880200,11.424880126953125,2.844926489293575,-0.8529170980349182,-0.7584548535302281
1761141624645940200,11.434940185546875,1.2297381943106651,-1.0268437782682478,-1.1464921942166983
1761141624655999200,11.444999267578124,-0.28614216970205303,-1.2818331232070923,-1.5087174866460262
1761141624666058200,11.455058349609375,-1.7571704155534504,-1.13036611206308,-1.4210595153287053
1761141624676118000,11.465117919921875,-3.236906283995509,-0.8169215094156563,-1.2175341079063713
1761141624686177300,11.47517724609375,-4.207268734976649,-0.6603604630682617,-1.4131556103363632
1761141624696236000,11.485236083984375,-4.457691941043734,-0.6269649008795619,-1.7628665813684463
1761141624706296300,11.49529638671875,-3.8610534971058366,-0.789801520365104,-2.0129989877954126
1761141624716355300,11.505355224609374,-3.2254484859138723,-1.0332453158736228,-1.7749983331888912
1761141624726414000,11.5154140625,-2.883312626311183,-1.3822072221040724,-1.1495887719925493
1761141624736474400,11.525474365234375,-2.769658774602413,-1.6164688363127409,-0.21939188879169522
1761141624746533000,11.535533203125,-2.6340941198587418,-1.7618685102418064,0.9232850579857825
1761141624756592400,11.54559228515625,-2.354627190136909,-1.8065505325332283,1.7455897217445075
1761141624766652400,11.55565234375,-1.8776164116203784,-1.4962548954360186,2.055014713487029
1761141624776711200,11.565711181640625,-1.3627327063053845,-1.117182220841199,1.6973301332272588
1761141624786770400,11.5757705078125,-0.8754811042815447,-0.8060230987824499,1.1804958783663808
1761141624796830200,11.585830322265625,-0.38814825371503825,-0.4281351769927889,0.864027397853136
1761141624806889200,11.59588916015625,0.02030219879448414,0.017210479856841265,0.5543682320285588
1761141624816948200,11.6059482421875,0.20068857656121253,0.19475662922896445,0.5052873902563005
1761141624827008300,11.61600830078125,0.206728441247344,0.24628303752243516,0.5681524272311479
1761141624837067300,11.6260673828125,0.1150865148603916,0.28604133967608214,0.7332394559919834
1761141624847126300,11.636126220703124,0.1317822135955095,0.2976988250482827,1.0218282881937921
1761141624857186300,11.646186279296876,0.367557301107049,0.09870564509495161,1.371742672843486
1761141624867245300,11.656245361328125,0.7539321154087781,-0.22643762431843206,1.4029251620925962
1761141624877304300,11.66630419921875,1.1703238823115825,-0.47871937253270297,1.4276891626015304
1761141624887364400,11.6763642578125,1.6032663865208625,-0.5599399312136695,1.385538996875286
1761141624897423400,11.68642333984375,2.004067785581946,-0.5941443620998412,1.0514875864636153
1761141624907482400,11.696482421875,2.26663501842916,-0.6610218495864421,0.4248072746790945
1761141624917542100,11.706542236328126,2.3856606263041495,-0.6534869240369647,-0.06923121100589633
1761141624927601400,11.716601318359375,2.022446322837472,-0.5412205811638384,-0.43952239405624566
1761141624937660200,11.72666015625,1.389498548156023,-0.5340357842262834,-0.6993778106614947
1761141624947720200,11.73672021484375,0.9476531910449266,-0.6519955895006656,-0.8115577904254198
1761141624957779500,11.746779541015625,0.5733470001995563,-0.7028622917763888,-0.707060035727173
1761141624967838200,11.756838134765625,0.4117489095330238,-0.7969560682948679,-0.6328363501962274
1761141624977898200,11.766898193359374,0.35590193462669845,-0.8875763965491205,-0.666381184662506
1761141624987957200,11.776957275390625,0.1872042410880327,-0.9422460713043809,-0.7297833972539752
1761141624998016300,11.787016357421875,-0.013635726642608642,-1.0165893646270037,-0.9618254357170313
1761141625008076500,11.79707666015625,-0.14180734852552412,-1.1162227281592785,-1.1444135613117365
1761141625018135300,11.80713525390625,-0.325161928448081,-1.0979184982489794,-1.2463926842525601
1761141625028194300,11.8171943359375,-0.6014765316188335,-1.0418573691353201,-1.3885795336149631
1761141625038254300,11.82725439453125,-1.0465005187660454,-1.0608623677261173,-1.2816659499466418
1761141625048313300,11.837313232421875,-1.4950713847398758,-0.9102278618834913,-1.1510632284592837
1761141625058372400,11.847372314453125,-2.0093074398010966,-0.7526504050351679,-1.1417874505918473
1761141625068431400,11.857431396484374,-2.217835623946786,-0.6971236750591546,-1.219006591611728
1761141625078491400,11.867491455078126,-1.9653870495319365,-0.600448430680111,-1.2080976595845072
1761141625088550400,11.87755029296875,-1.634496806564927,-0.5383998977199197,-1.2645061408311127
1761141625098609400,11.887609375,-1.2887398338556288,-0.5364757977895438,-1.3168157353915273
1761141625108669200,11.897669189453126,-0.9667337390899657,-0.5292468329166993,-1.2622276745051144
1761141625118728400,11.907728515625,-0.8362509176552295,-0.5475001728899777,-1.05319227148965
1761141625128788200,11.917788330078125,-0.9498673599630594,-0.5165640596173703,-0.7439888866085559
1761141625138847200,11.92784716796875,-1.1751765830397605,-0.4734609040152281,-0.5106421952877194
1761141625148906200,11.93790625,-1.3585890306293964,-0.44547516498081385,-0.2670340760629624
1761141625158965200,11.94796533203125,-1.396529761967063,-0.44179132536891846,-0.10412110340557992
1761141625169025500,11.958025634765624,-1.1377204203486442,-0.3853087559727952,-0.17420301295667887
1761141625179084300,11.968084228515625,-0.715513245165348,-0.3949441974654794,-0.3620871991328895
1761141625189143300,11.978143310546875,-0.18425357458889483,-0.4667766039457172,-0.5094527663074434
1761141625199203300,11.988203369140624,0.42759646700620646,-0.5337613511990755,-0.5910116900973021
1761141625209262300,11.998262451171875,0.9036591510176658,-0.6842836288388818,-0.6186637401979416
1761141625219321300,12.0083212890625,1.2168126617640256,-0.765636143336445,-0.6171553814616054
1761141625229381400,12.01838134765625,1.25126964263916,-0.8310434121400118,-0.4273217417180538
1761141625239440400,12.0284404296875,1.1301613832712172,-0.8279895775273441,-0.249854393203184
1761141625249499400,12.03849951171875,0.7823515696853399,-0.8109422158103435,0.013419380478188395
1761141625259559400,12.048559326171874,0.33142040432095526,-0.7697199785839766,0.31630174564421176
1761141625269618200,12.0586181640625,-0.09515957911908626,-0.587992634537071,0.7581828316558152
1761141625279677400,12.068677490234375,-0.7320511229902505,-0.5376024637319148,1.4681959450349211
1761141625289737200,12.0787373046875,-1.2435580453485249,-0.32367914254441854,1.9114476618126033
1761141625299796200,12.088796142578126,-1.5447668512791395,0.032095658571273084,1.808171703994274
1761141625309855200,12.098855224609375,-1.6471394305169582,0.356726256621629,1.471071792732179
1761141625319915300,12.108915283203125,-1.2928922773599625,0.5676494461450725,0.4897242757476866
1761141625329974500,12.118974609375,-0.49965807913243765,0.7825652855012566,-0.7998243902727961
1761141625340033300,12.129033203125,0.06924070948660373,0.9481646476984024,-1.4970480916403233
1761141625350093300,12.13909326171875,0.6258820740789175,0.919783114279434,-1.811567776173353
1761141625360152300,12.14915234375,0.8872381775707006,0.7738393235363066,-1.817714900626242
1761141625370211300,12.15921142578125,0.9196224438250065,0.5422127340063453,-1.5428205395169554
1761141625380271400,12.169271240234375,1.1465157212227581,0.36863647464588284,-1.1209152698896825
1761141625390330400,12.179330322265624,1.2827373785704375,0.3161946320079267,-0.6291564195744693
1761141625400389400,12.189389404296875,1.3490543095648289,0.28672070024237034,-0.4044875036953017
1761141625410449200,12.19944921875,1.4282587791830301,0.24365035093128679,-0.4447350141379982
1761141625420508400,12.20950830078125,1.3674158956855536,0.2473997665926814,-0.3452903781108558
1761141625430567200,12.219567138671875,1.2016185997635125,0.22673574874848126,-0.29670743939075617
1761141625440627500,12.22962744140625,1.2263912219703197,0.1711006630271673,-0.46192770260982213
1761141625450686200,12.239686279296874,1.2623545157551765,0.12816665344685316,-0.4720972509792074
1761141625460745200,12.2497451171875,1.1997393618881702,0.06664703973159193,-0.16492497006691992
1761141625470805500,12.259805419921875,1.038560373416543,0.08428951779752969,0.11131916168350725
1761141625480864300,12.2698642578125,0.7920201462626457,0.17449921942427754,0.17542627114132045
1761141625490923500,12.279923583984376,0.5596539904117583,0.2853758615046739,0.26026253610141575
1761141625500983300,12.2899833984375,0.21261749928593635,0.3555301787048578,0.4254605509560555
1761141625511042300,12.300042236328125,-0.08833177892565727,0.4108449464306235,0.576576264444366
1761141625521101300,12.310101318359376,-0.48159985987246035,0.46689767304211854,0.7773452127654105
1761141625531161300,12.320161376953125,-0.5111339973926544,0.5264879261299967,0.7526252705939114
1761141625541220400,12.330220458984375,-0.4036275623977184,0.5925052896559239,0.5687794730883091
1761141625551279400,12.340279296875,-0.11368015519380568,0.5611514624278993,0.3468483481425792
1761141625561339400,12.35033935546875,0.27964696246385573,0.45429925355799494,0.3847975550476461
1761141625571398100,12.360398193359375,0.542464955201745,0.3551720859821886,0.6331441009711474
1761141625581457400,12.37045751953125,0.7861807725846767,0.23520035636350511,0.7813715456720441
1761141625591517400,12.380517333984375,0.836041074296832,0.09571385200098156,0.9285580299526452
1761141625601576400,12.390576416015625,0.9001187019318342,0.020323533843457697,1.06332393553406
1761141625611635500,12.400635498046874,1.0980647017866372,0.006843947610631585,0.8966125935070216
1761141625621695200,12.4106953125,1.2709160078734159,-0.04398344556801021,0.745354768134281
1761141625631754500,12.42075439453125,1.273144205316901,-0.06450294037498533,0.853994518008083
1761141625641814300,12.430814208984375,1.0673860704064368,-0.12973295291550457,1.1199028779767453
1761141625651873300,12.440873291015626,0.9162591048717498,-0.26327143559381366,1.3690236231431365
1761141625661932300,12.450932373046875,1.0351052645266055,-0.34234343793876465,1.379085875213146
1761141625671992300,12.460992431640625,1.2645961572021245,-0.36066987968087194,1.2262217106223106
1761141625682051300,12.47105126953125,1.4597218389391897,-0.3024607056878507,1.043745447904244
1761141625692110300,12.4811103515625,1.2943652725219725,-0.33316688266210254,1.0658716472554952
1761141625702170400,12.49117041015625,1.1559393831282854,-0.3461008907761425,1.0447963451966642
1761141625712229400,12.5012294921875,0.9719722242653369,-0.3096943832684308,0.9052308573137968
1761141625722288400,12.511288330078125,0.6392956824034453,-0.20715075831264257,0.9606083880774676
1761141625732348400,12.521348388671875,0.39426352172493934,-0.12888430019691585,0.9467961358241737
1761141625742407400,12.531407470703124,0.22052198880016802,-0.1080648725952953,0.8135330360211431
1761141625752466400,12.541466552734375,0.1898462800294161,-0.12249931186754255,0.6326246802069246
1761141625762526200,12.551526123046875,0.27011048783361913,-0.15286891383118928,0.3297000102691352
1761141625772585500,12.56158544921875,0.2682937938004732,-0.1579479341285303,0.007331658062338829
1761141625782644200,12.571644287109375,0.1619376978844404,-0.19983020616620778,-0.14019932880699634
1761141625792704300,12.581704345703125,0.1643389138072729,-0.3105808107141405,-0.337949367698282
1761141625802763300,12.59176318359375,0.10634791260957717,-0.3603813085304573,-0.5234506042607129
1761141625812822300,12.601822265625,0.01215571721792221,-0.3937671895753592,-0.6311895328372716
1761141625822882300,12.61188232421875,-0.007338087803125381,-0.3257566794708371,-0.8878772061266005
1761141625832941300,12.62194140625,-0.13589841674268244,-0.18571986601548268,-1.2058083065383136
1761141625843000000,12.632,-0.571745410221815,-0.15170251866662873,-0.9410429791249334
1761141625853060400,12.642060302734375,-1.1978595394909382,-0.3354755249306559,-0.43830125476345416
1761141625863119000,12.652119140625,-1.6003145509779453,-0.6688084848746657,-0.27115999688655135
1761141625873178400,12.662178466796876,-1.868444678649306,-0.3324246494600549,0.6365048826411366
1761141625883238400,12.67223828125,-1.9100743276327847,-0.5256977621329948,0.7767682165950536
1761141625893297200,12.682297119140625,-1.4919652354180812,-0.8510174018934369,0.16987155962362885
1761141625903356400,12.6923564453125,-0.998951416605711,-0.8995906594697386,-0.4268086776293814
1761141625913416200,12.702416259765625,-0.6671662706255912,-0.9400570368275046,-0.46327699832692737
1761141625923475200,12.71247509765625,-0.6226385621130466,-1.177632524824515,-0.29043928237408395
1761141625933534200,12.7225341796875,-0.6468740087032318,-1.4815417488202451,-0.15806684780046343
1761141625943594200,12.73259423828125,-0.6832499749422073,-1.7037933378919958,-0.026535832487046718
1761141625953653000,12.742653076171875,-0.6235661983519792,-1.8304289823792874,0.06950052946656941
1761141625963712300,12.752712158203124,-0.4209937077403068,-1.8568990561537444,0.05454202978760004
1761141625973772300,12.762772216796876,-0.13443418940901755,-1.8539065963394938,-0.17412381024062631
1761141625983831000,12.7728310546875,0.20928806260228155,-1.852676616153121,-0.6387821799233555
1761141625993890300,12.782890380859374,0.6080342826992273,-1.8051481183893978,-1.114450165528804
1761141626003950000,12.7929501953125,0.9776806650400162,-1.7453870387792587,-1.4183730527237057
1761141626014009300,12.80300927734375,1.12706049464643,-1.967985103201121,-1.6891778064318
