time,seconds_elapsed,z,y,x
1761141613278967300,0.06796728515625,0.01170453429222107,0.04637324810028076,-0.4281269907951355
1761141613289026600,0.078026611328125,-0.016987469047307968,0.08025679737329483,-0.37189990282058716
1761141613299085300,0.088085205078125,-0.03531481325626373,0.05618048459291458,-0.255574107170105
1761141613309144600,0.09814453125,-0.041290801018476486,-0.010401375591754913,-0.08860361576080322
1761141613319204600,0.10820458984375,-0.029987281188368797,-0.10188575088977814,0.08916265517473221
1761141613329263400,0.118263427734375,-0.01456137653440237,-0.19021856784820557,0.21760210394859314
1761141613339322600,0.128322509765625,-0.010445727035403252,-0.25926902890205383,0.26089924573898315
1761141613349381400,0.13838134765625,-0.006717645563185215,-0.27013441920280457,0.2243465781211853
1761141613359440600,0.148440673828125,-0.017880285158753395,-0.21324315667152405,0.1330382376909256
1761141613369499400,0.15849951171875,-0.021182550117373466,-0.10656251758337021,0.019328635185956955
1761141613379559400,0.168559326171875,-0.014842362143099308,-0.006797307170927525,-0.08804522454738617
1761141613389618400,0.178618408203125,-0.012397895567119122,0.03421889245510101,-0.17508439719676971
1761141613399677400,0.188677490234375,-0.026476696133613586,-0.016210190951824188,-0.22382530570030212
1761141613409736400,0.198736328125,-0.05298350378870964,-0.08197926729917526,-0.22999507188796997
1761141613419795500,0.20879541015625,-0.07897568494081497,-0.11195394396781921,-0.1985284984111786
1761141613429855200,0.218855224609375,-0.09697834402322769,-0.09248016774654388,-0.1423601657152176
1761141613439914500,0.22891455078125,-0.1059553250670433,-0.06506213545799255,-0.06600627303123474
1761141613449973200,0.23897314453125,-0.10825344175100327,-0.04905729740858078,0.01636345311999321
1761141613460032500,0.249032470703125,-0.08830343931913376,-0.04838671162724495,0.09367953985929489
1761141613470091300,0.25909130859375,-0.08134524524211884,-0.05755314975976944,0.13803070783615112
1761141613480151300,0.2691513671875,-0.08405528217554092,-0.05950897932052612,0.14575201272964478
1761141613490210600,0.27921044921875,-0.08044429868459702,-0.07273663580417633,0.13094642758369446
1761141613500269300,0.289269287109375,-0.07320195436477661,-0.12200977653265,0.09580246359109879
1761141613510328600,0.29932861328125,-0.059151846915483475,-0.16200576722621918,0.05994239076972008
1761141613520387300,0.30938720703125,-0.026781655848026276,-0.13682317733764648,0.056318361312150955
1761141613530446600,0.319446533203125,-0.002914625685662031,-0.0855155810713768,0.07694894075393677
1761141613540506400,0.32950634765625,0.014188727363944054,-0.03585454821586609,0.0999799594283104
1761141613550565400,0.3395654296875,0.01496765948832035,-0.00899484008550644,0.12036983668804169
1761141613560624400,0.349624267578125,-0.015142573043704033,-0.0059449877589941025,0.12367908656597137
1761141613570683400,0.359683349609375,-0.07224714010953903,-0.028831737115979195,0.10296496003866196
1761141613580742400,0.369742431640625,-0.1298728883266449,-0.044767823070287704,0.07462333887815475
1761141613590802400,0.379802490234375,-0.17238207161426544,-0.050475940108299255,0.06815432012081146
1761141613600861400,0.389861328125,-0.1917954385280609,-0.09653424471616745,0.08486965298652649
1761141613610920400,0.39992041015625,-0.16103456914424896,-0.15281780064105988,0.11969852447509766
1761141613620979500,0.4099794921875,-0.10603871196508408,-0.1907753050327301,0.16458424925804138
1761141613631038500,0.42003857421875,-0.02832074463367462,-0.20886988937854767,0.19419778883457184
1761141613641098500,0.430098388671875,0.04623737931251526,-0.1842106133699417,0.1927887201309204
1761141613651157500,0.440157470703125,0.09327350556850433,-0.13206900656223297,0.15243463218212128
1761141613661216500,0.450216552734375,0.10289071500301361,-0.08544903248548508,0.08470671623945236
1761141613671275300,0.460275146484375,0.08029676228761673,-0.04624336585402489,-0.0003308107261545956
1761141613681334500,0.47033447265625,0.05445238575339317,-0.022473057731986046,-0.07798459380865097
1761141613691394600,0.48039453125,0.03390737995505333,-0.02029240131378174,-0.1259530484676361
1761141613701453600,0.49045361328125,0.021976418793201447,-0.037235699594020844,-0.14135810732841492
1761141613711512600,0.5005126953125,0.012912810780107975,-0.062043510377407074,-0.140377476811409
1761141613721571300,0.5105712890625,0.02309194579720497,-0.057040490210056305,-0.11774035543203354
1761141613731630600,0.520630615234375,0.03489258140325546,-0.025156745687127113,-0.07476279884576797
1761141613741690400,0.5306904296875,0.026374995708465576,0.0033803568221628666,-0.028907960280776024
1761141613751749600,0.54074951171875,-0.0029759223107248545,-0.007960241287946701,0.010990058071911335
1761141613761808400,0.550808349609375,-0.05344468727707863,-0.07895345985889435,0.033817876130342484
1761141613771867400,0.560867431640625,-0.11380034685134888,-0.15862520039081573,0.023029448464512825
1761141613781926400,0.570926513671875,-0.16726863384246826,-0.19417041540145874,-0.008367356844246387
1761141613791986400,0.580986328125,-0.18133381009101868,-0.1608324944972992,-0.04581499472260475
1761141613802045400,0.59104541015625,-0.15118123590946198,-0.07021975517272949,-0.07866454869508743
1761141613812104400,0.6011044921875,-0.08386009931564331,0.02968353033065796,-0.10423684865236282
1761141613822163500,0.61116357421875,0.002303819404914975,0.11407164484262466,-0.1166895255446434
1761141613832222200,0.62122216796875,0.08106070756912231,0.17857952415943146,-0.11887642741203308
1761141613842282200,0.6312822265625,0.13701292872428894,0.2287857085466385,-0.13812096416950226
1761141613852341500,0.641341552734375,0.17084664106369019,0.30360761284828186,-0.13572296500205994
1761141613862400300,0.651400146484375,0.16473042964935303,0.37955349683761597,-0.11394523084163666
1761141613872459500,0.66145947265625,0.1088627278804779,0.3880007565021515,-0.0800284743309021
1761141613882518300,0.671518310546875,0.01941034570336342,0.3702017664909363,-0.05035419389605522
1761141613892578300,0.681578369140625,-0.06723848730325699,0.4235359728336334,-0.016086429357528687
1761141613902637300,0.69163720703125,-0.1136573776602745,0.6214938163757324,0.01753464713692665
1761141613912696300,0.7016962890625,-0.10035019367933273,0.9967572689056396,0.06480655074119568
1761141613922755300,0.71175537109375,-0.07883451133966446,1.4329628944396973,0.11114262044429779
1761141613932814300,0.721814453125,-0.10864952206611633,1.7900034189224243,0.179195374250412
1761141613942874400,0.731874267578125,-0.19782254099845886,2.40846848487854,0.19901755452156067
1761141613952933400,0.741933349609375,-0.32945773005485535,3.0634138584136963,0.13937385380268097
1761141613962992400,0.751992431640625,-0.39226385951042175,3.6724905967712402,-0.04306066781282425
1761141613973051400,0.762051513671875,-0.3246780037879944,4.104949474334717,-0.2738973796367645
1761141613983110400,0.7721103515625,-0.09565598517656326,4.210177421569824,-0.6357181668281555
1761141613993170200,0.782170166015625,0.21680089831352234,4.179145812988281,-1.19212806224823
1761141614003229400,0.7922294921875,0.6418097019195557,3.9787564277648926,-1.667535662651062
1761141614013288200,0.8022880859375,1.1226588487625122,3.6306817531585693,-1.8743501901626587
1761141614023347500,0.812347412109375,1.6528111696243286,3.2247493267059326,-1.7981880903244019
1761141614033406200,0.82240625,2.040879249572754,2.8959968090057373,-1.4705029726028442
1761141614043466200,0.83246630859375,2.0540008544921875,2.6314032077789307,-1.008906602859497
1761141614053525500,0.842525390625,1.8517383337020874,2.4078361988067627,-0.4957984685897827
1761141614063584300,0.852584228515625,1.6172760725021362,2.196990489959717,0.013908457942306995
1761141614073643500,0.8626435546875,1.400444507598877,1.8415260314941406,0.44665083289146423
1761141614083702300,0.872702392578125,1.1700890064239502,1.2849397659301758,0.7242712378501892
1761141614093762300,0.88276220703125,0.8901185393333435,0.5657755732536316,0.7527244091033936
1761141614103821300,0.8928212890625,0.6103185415267944,0.025793302804231644,0.584416925907135
1761141614113880300,0.90288037109375,0.3884774446487427,-0.2340056598186493,0.2970498502254486
1761141614123939300,0.912939208984375,0.25845417380332947,-0.3647429049015045,-0.05901585519313812
1761141614133999400,0.922999267578125,0.24528968334197998,-0.423606276512146,-0.42982468008995056
1761141614144058000,0.93305810546875,0.30299320816993713,-0.39142730832099915,-0.7548911571502686
1761141614154117400,0.943117431640625,0.3557003438472748,-0.32085853815078735,-1.019053339958191
1761141614164176100,0.953176025390625,0.35772326588630676,-0.29911065101623535,-1.2053771018981934
1761141614174235400,0.9632353515625,0.3097091615200043,-0.3461231589317322,-1.266664981842041
1761141614184295400,0.97329541015625,0.23031657934188843,-0.42367175221443176,-1.188667893409729
1761141614194354200,0.983354248046875,0.166098490357399,-0.44223037362098694,-0.976768970489502
1761141614204413400,0.993413330078125,0.13399381935596466,-0.46012547612190247,-0.6804699301719666
1761141614214472200,1.00347216796875,0.13728009164333344,-0.42438173294067383,-0.3533942401409149
1761141614224531500,1.013531494140625,0.17346525192260742,-0.3741518557071686,-0.12605081498622894
1761141614234591200,1.02359130859375,0.21932728588581085,-0.34175875782966614,-0.08836095780134201
1761141614244650200,1.033650146484375,0.2559066116809845,-0.30449768900871277,-0.1879967451095581
1761141614254709200,1.043709228515625,0.2494979053735733,-0.20092327892780304,-0.3384530246257782
1761141614264768300,1.053768310546875,0.20305396616458893,-0.08632958680391312,-0.4779483377933502
1761141614274827300,1.0638271484375,0.1512204259634018,0.05171768739819527,-0.5513426065444946
1761141614284887300,1.07388720703125,0.11389756202697754,0.21940335631370544,-0.571483314037323
1761141614294946600,1.083946533203125,0.10170824825763702,0.38186365365982056,-0.5768075585365295
1761141614305005300,1.09400537109375,0.11503976583480835,0.46433642506599426,-0.5801692605018616
1761141614315064300,1.104064208984375,0.1261332780122757,0.48663946986198425,-0.5762922167778015
1761141614325123300,1.114123291015625,0.12145756930112839,0.4857582449913025,-0.5587627291679382
1761141614335183400,1.124183349609375,0.09798577427864075,0.44233250617980957,-0.549433708190918
1761141614345242400,1.134242431640625,0.059514015913009644,0.35794174671173096,-0.5366652011871338
1761141614355301400,1.14430126953125,0.027699021622538567,0.24518944323062897,-0.5152053833007812
1761141614365360400,1.1543603515625,0.02549685351550579,0.1755954623222351,-0.4779035449028015
1761141614375419400,1.16441943359375,0.06415639072656631,0.11988737434148788,-0.4252834618091583
1761141614385479400,1.1744794921875,0.13210535049438477,0.04414227604866028,-0.3760429322719574
1761141614395538400,1.184538330078125,0.21921393275260925,0.024746723473072052,-0.3648234009742737
1761141614405597400,1.194597412109375,0.30990201234817505,0.02786928042769432,-0.3474563956260681
1761141614415656400,1.204656494140625,0.4068385660648346,0.025174511596560478,-0.3154253661632538
1761141614425715500,1.214715576171875,0.47895190119743347,0.00873002503067255,-0.24289043247699738
1761141614435775200,1.224775146484375,0.5363163948059082,0.03194272145628929,-0.13692064583301544
1761141614445834500,1.23483447265625,0.5769346356391907,0.06086891517043114,-0.04502454400062561
1761141614455893200,1.244893310546875,0.6065813899040222,0.06407783180475235,-0.01268448494374752
1761141614465952500,1.254952392578125,0.6168140769004822,0.03006580099463463,-0.03368857130408287
1761141614476011300,1.26501123046875,0.606887936592102,-0.01348673366010189,-0.07906191051006317
1761141614486071300,1.2750712890625,0.5884506106376648,-0.05234678089618683,-0.11137803643941879
1761141614496130300,1.28513037109375,0.5742818713188171,-0.08164755254983902,-0.10635221004486084
1761141614506189300,1.295189208984375,0.5609143972396851,-0.06775064021348953,-0.0690716877579689
1761141614516248300,1.305248291015625,0.5444217324256897,-0.03648459166288376,-0.029222089797258377
1761141614526308400,1.315308349609375,0.5354330539703369,0.01309121772646904,-0.0029526706784963608
1761141614536367400,1.325367431640625,0.5340563654899597,0.08284292370080948,0.0077320607379078865
1761141614546426400,1.33542626953125,0.5190582275390625,0.15823781490325928,-0.002581828972324729
1761141614556485400,1.3454853515625,0.49877965450286865,0.2559947073459625,-0.01836337149143219
1761141614566544400,1.35554443359375,0.47011658549308777,0.3482458293437958,-0.06041362136602402
1761141614576604400,1.3656044921875,0.4395488500595093,0.39656007289886475,-0.11640679836273193
1761141614586663200,1.3756630859375,0.4271891117095947,0.42509394884109497,-0.16923165321350098
1761141614596722400,1.385722412109375,0.5087656378746033,0.14905695617198944,-0.25560954213142395
1761141614606781200,1.39578125,0.5786195397377014,0.06893815100193024,-0.38829728960990906
1761141614616840400,1.40584033203125,0.795458972454071,0.08875146508216858,-0.5120083093643188
1761141614626900500,1.415900390625,0.9062227606773376,0.29406440258026123,-0.6846391558647156
1761141614636959200,1.425959228515625,1.1145693063735962,0.5631234645843506,-0.9114589095115662
1761141614647018500,1.4360185546875,1.4090907573699951,0.7025319337844849,-1.2133015394210815
1761141614657077200,1.4460771484375,1.7678269147872925,0.5439482927322388,-1.6132580041885376
1761141614667136500,1.456136474609375,1.895453929901123,0.7504698038101196,-1.916285753250122
1761141614677196300,1.4661962890625,1.9449070692062378,0.9694113731384277,-2.090651750564575
1761141614687255300,1.47625537109375,2.022606611251831,0.6883743405342102,-2.1644046306610107
1761141614697314300,1.486314208984375,1.9983110427856445,0.5508272051811218,-2.158615827560425
1761141614707373300,1.496373291015625,1.9153567552566528,0.5701974630355835,-2.0223121643066406
1761141614717432300,1.506432373046875,1.8495482206344604,0.6701395511627197,-1.7650834321975708
1761141614727492400,1.516492431640625,1.8421193361282349,0.7386429905891418,-1.436316728591919
1761141614737551400,1.52655126953125,1.800616979598999,0.8354251384735107,-1.0947788953781128
1761141614747610400,1.5366103515625,1.7179210186004639,1.0582435131072998,-0.7187412977218628
1761141614757669400,1.54666943359375,1.6209907531738281,1.391164779663086,-0.26844772696495056
1761141614767729400,1.5567294921875,1.4823598861694336,1.8259588479995728,0.2449847012758255
1761141614777788400,1.566788330078125,1.2142218351364136,2.1843369007110596,0.7854809761047363
1761141614787847200,1.57684716796875,0.8759926557540894,2.11319637298584,1.2909468412399292
1761141614797906400,1.586906494140625,0.5842908024787903,1.4888113737106323,1.706518292427063
1761141614807965200,1.596965087890625,0.32973572611808777,0.6396955251693726,1.9898930788040161
1761141614818025500,1.607025390625,0.07950139790773392,-0.3828218877315521,2.178914785385132
1761141614828084200,1.617084228515625,-0.2187151163816452,-1.6460742950439453,2.1678454875946045
1761141614838143200,1.627143310546875,-0.6652711629867554,-3.232529878616333,1.6301443576812744
1761141614848202200,1.6372021484375,-1.0571715831756592,-4.295882701873779,1.0236790180206299
1761141614858261200,1.64726123046875,-1.307501196861267,-4.694335460662842,0.5536856055259705
1761141614868321500,1.657321533203125,-1.4882214069366455,-4.169683933258057,-0.08598196506500244
1761141614878380300,1.66738037109375,-1.5451292991638184,-3.3457298278808594,-0.7215302586555481
1761141614888439300,1.677439208984375,-1.4847315549850464,-2.0855281352996826,-1.2768725156784058
1761141614898498300,1.687498291015625,-1.2775671482086182,-1.0464621782302856,-1.6234023571014404
1761141614908558300,1.697558349609375,-0.9067334532737732,-0.5144843459129333,-1.6488145589828491
1761141614918617300,1.707617431640625,-0.5144194960594177,-0.42633211612701416,-1.3507777452468872
1761141614928676400,1.71767626953125,-0.3133755624294281,-0.7005825638771057,-0.8568241596221924
1761141614938735400,1.7277353515625,-0.2863844037055969,-1.1902202367782593,-0.2760002017021179
1761141614948794400,1.73779443359375,-0.24635231494903564,-1.7950440645217896,0.3547340929508209
1761141614958854400,1.7478544921875,-0.15704594552516937,-2.3326334953308105,0.9506622552871704
1761141614968913400,1.757913330078125,-0.07184769213199615,-2.9673404693603516,1.4205271005630493
1761141614978972400,1.767972412109375,-0.0005454716738313437,-3.3863232135772705,1.6560115814208984
1761141614989031400,1.778031494140625,0.19659475982189178,-3.4703807830810547,1.670310139656067
1761141614999090400,1.78809033203125,0.5439483523368835,-3.010262966156006,1.5868860483169556
1761141615009150200,1.798150146484375,0.8261837959289551,-2.3491098880767822,1.2813400030136108
1761141615019209500,1.80820947265625,0.8414481282234192,-1.8473776578903198,0.6965811252593994
1761141615029268200,1.818268310546875,0.6384047269821167,-1.6926522254943848,0.07292309403419495
1761141615039327500,1.828327392578125,0.3519405126571655,-1.7806471586227417,-0.34316661953926086
1761141615049387300,1.83838720703125,0.13283240795135498,-1.843611717224121,-0.559181809425354
1761141615059446300,1.8484462890625,-0.0755755826830864,-1.436184287071228,-0.506138801574707
1761141615069505300,1.85850537109375,-0.38628900051116943,-0.7831684350967407,-0.4189583361148834
1761141615079564300,1.868564208984375,-0.6432927250862122,-0.6866276264190674,-0.4492717385292053
1761141615089623600,1.87862353515625,-0.8471084237098694,-0.811963677406311,-0.6327682733535767
1761141615099683300,1.888683349609375,-0.962783694267273,-0.9908098578453064,-1.0021347999572754
1761141615109742300,1.898742431640625,-0.9355653524398804,-1.0746350288391113,-1.295891523361206
1761141615119801300,1.90880126953125,-0.8331480026245117,-1.1625709533691406,-1.2668050527572632
1761141615129860400,1.9188603515625,-0.6310505270957947,-1.420613408088684,-1.2315919399261475
1761141615139920100,1.928920166015625,-0.7782350182533264,-1.776625633239746,-1.718871831893921
1761141615149979400,1.9389794921875,-1.029937505722046,-1.6829622983932495,-2.459827423095703
1761141615160038100,1.9490380859375,-1.1806390285491943,-1.1695321798324585,-3.281541347503662
1761141615170097400,1.959097412109375,-1.333837628364563,-0.47607916593551636,-3.959843158721924
1761141615180156200,1.96915625,-1.331092119216919,0.17786730825901031,-4.296630382537842
1761141615190216200,1.97921630859375,-1.1938633918762207,0.4346093535423279,-4.2571516036987305
1761141615200275500,1.989275390625,-1.0151537656784058,0.16796284914016724,-3.8562376499176025
1761141615210334200,1.999334228515625,-0.7965517044067383,-0.1609487384557724,-2.9756217002868652
1761141615220393500,2.0093935546875,-0.37439489364624023,-0.5188896059989929,-1.8243300914764404
1761141615230452200,2.0194521484375,-0.015640195459127426,-0.7562115788459778,-0.7633771300315857
1761141615240512300,2.02951220703125,0.12008693814277649,-0.6324778199195862,-0.0439203642308712
1761141615250571300,2.0395712890625,0.18169277906417847,-0.1599465161561966,0.37720930576324463
1761141615260630300,2.04963037109375,0.19258640706539154,0.3747965693473816,0.6927435398101807
1761141615270689300,2.059689208984375,0.22561466693878174,0.7746464610099792,1.0120735168457031
1761141615280749300,2.069749267578125,0.3016197383403778,0.9805295467376709,1.2674765586853027
1761141615290808300,2.079808349609375,0.34648841619491577,1.0779470205307007,1.4458625316619873
1761141615300867300,2.089867431640625,0.3921620547771454,1.0121326446533203,1.5371453762054443
1761141615310926300,2.09992626953125,0.42288586497306824,0.8079904317855835,1.5440746545791626
1761141615320985300,2.1099853515625,0.4109691083431244,0.5126537680625916,1.4908785820007324
1761141615331045400,2.12004541015625,0.34285345673561096,0.06266503781080246,1.3275279998779297
1761141615341104400,2.1301044921875,0.2439453899860382,-0.4912548065185547,1.1061128377914429
1761141615351163400,2.140163330078125,0.1877947747707367,-0.9397529363632202,0.8768824338912964
1761141615361222100,2.15022216796875,0.13864244520664215,-1.1405397653579712,0.6204760670661926
1761141615371282400,2.160282470703125,0.07614603638648987,-1.0102393627166748,0.36556577682495117
1761141615381341200,2.170341064453125,0.02609415352344513,-0.698382556438446,0.17727096378803253
1761141615391400400,2.180400390625,-0.007319464348256588,-0.3621810972690582,0.1084040105342865
1761141615401459200,2.190459228515625,-0.01199500821530819,-0.11143532395362854,0.15879100561141968
1761141615411518200,2.200518310546875,0.016995098441839218,0.005197287071496248,0.31512683629989624
1761141615421578500,2.21057861328125,0.0449884794652462,-0.02304134890437126,0.5313854217529297
1761141615431637200,2.22063720703125,0.0636545792222023,-0.24310314655303955,0.7847191691398621
1761141615441696500,2.230696533203125,0.08864422142505646,-0.6033920049667358,1.0441076755523682
1761141615451755300,2.24075537109375,0.11712140589952469,-1.0294642448425293,1.295519232749939
1761141615461815300,2.250815185546875,0.1267017126083374,-1.377578616142273,1.5056387186050415
1761141615471874300,2.260874267578125,0.09735395014286041,-1.5428413152694702,1.6353601217269897
1761141615481933300,2.270933349609375,0.055487073957920074,-1.4645650386810303,1.6940436363220215
1761141615491992300,2.280992431640625,0.029963070526719093,-1.157936692237854,1.7164839506149292
1761141615502051300,2.29105126953125,-0.005991881247609854,-0.8491214513778687,1.6925477981567383
1761141615512111400,2.301111328125,-0.07751959562301636,-0.5661829710006714,1.6369633674621582
1761141615522170400,2.31117041015625,-0.15710797905921936,-0.342912495136261,1.5400341749191284
1761141615532229400,2.3212294921875,-0.24031445384025574,-0.24105750024318695,1.417001485824585
1761141615542288400,2.331288330078125,-0.3941107392311096,-0.30121979117393494,1.2685542106628418
1761141615552348400,2.341348388671875,-0.603817880153656,-0.46949321031570435,1.0919134616851807
1761141615562407200,2.3514072265625,-0.804589569568634,-0.5509300827980042,0.9089919924736023
1761141615572466400,2.361466552734375,-0.9046559929847717,-0.39167410135269165,0.7253614068031311
1761141615582525200,2.371525146484375,-0.8276993036270142,-0.09271550923585892,0.5409783124923706
1761141615592584400,2.38158447265625,-0.6004917025566101,0.2786758542060852,0.27883240580558777
1761141615602644500,2.39164453125,-0.37394243478775024,0.6802730560302734,0.015112853609025478
1761141615612703200,2.401703125,-0.2129330337047577,1.065048336982727,-0.21471315622329712
1761141615622762500,2.411762451171875,-0.2110321819782257,1.4820388555526733,-0.3383864462375641
1761141615632821200,2.4218212890625,-0.4567314386367798,1.833235263824463,-0.25452882051467896
1761141615642881300,2.43188134765625,-0.6854292154312134,2.032959222793579,0.13644233345985413
1761141615652940300,2.441940185546875,-0.6993402242660522,1.9067565202713013,0.5877972841262817
1761141615662999300,2.451999267578125,-0.5373501777648926,1.4931756258010864,0.9726633429527283
1761141615673058300,2.462058349609375,-0.01825881563127041,0.846408486366272,1.2658171653747559
1761141615683117300,2.472117431640625,0.5291406512260437,-0.35584792494773865,1.1890015602111816
1761141615693177300,2.48217724609375,0.7595445513725281,-1.4093962907791138,0.8155096769332886
1761141615703236400,2.492236328125,0.9108062982559204,-1.7641514539718628,0.3600658178329468
1761141615713295000,2.502295166015625,0.86562180519104,-1.2071092128753662,0.20481495559215546
1761141615723354400,2.512354248046875,0.6531879305839539,0.05548209697008133,0.5258910059928894
1761141615733414400,2.522414306640625,0.4652668237686157,1.337108850479126,1.2033566236495972
1761141615743473400,2.532473388671875,0.4432580769062042,1.6470199823379517,1.8696064949035645
1761141615753532400,2.542532470703125,0.6100848913192749,0.725703239440918,2.1361775398254395
1761141615763591200,2.552591064453125,0.8182984590530396,-0.835371196269989,1.8638944625854492
1761141615773650400,2.562650390625,0.8480516076087952,-1.8112069368362427,1.249089002609253
1761141615783710200,2.572710205078125,0.7304760217666626,-1.88235604763031,0.4398544728755951
1761141615793769500,2.58276953125,0.5376373529434204,-1.192956566810608,-0.48032864928245544
1761141615803828200,2.592828125,0.39948585629463196,-0.10963962972164154,-1.2485464811325073
1761141615813887200,2.60288720703125,0.23707298934459686,0.719959557056427,-1.7380982637405396
1761141615823947000,2.612947021484375,0.07937094569206238,0.8015950918197632,-1.9013277292251587
1761141615834006000,2.623006103515625,0.0065763648599386215,0.25330114364624023,-1.871269941329956
1761141615844065000,2.63306494140625,-0.08493726700544357,-0.6933594942092896,-1.9466997385025024
1761141615854124000,2.6431240234375,-0.1927119493484497,-1.5709635019302368,-2.2581093311309814
1761141615864183800,2.653183837890625,-0.23858033120632172,-1.941831350326538,-2.734771251678467
1761141615874243000,2.6632431640625,-0.23795901238918304,-1.6139496564865112,-3.223860025405884
1761141615884301800,2.6733017578125,-0.1965574473142624,-0.8462426066398621,-3.6848175525665283
1761141615894361000,2.683361083984375,-0.13749465346336365,0.14385966956615448,-3.7491424083709717
1761141615904419800,2.693419921875,-0.09156350791454315,0.796778678894043,-3.366741180419922
1761141615914479900,2.70347998046875,0.013359712436795235,0.9477921724319458,-2.6533427238464355
1761141615924539100,2.7135390625,0.11143054068088531,0.8460566401481628,-1.6558566093444824
1761141615934598000,2.723597900390625,0.20210237801074982,0.5692809224128723,-0.5897858738899231
1761141615944657200,2.7336572265625,0.22362208366394043,0.21219845116138458,0.3035249710083008
1761141615954717000,2.743717041015625,0.18616525828838348,-0.2165377289056778,0.8913554549217224
1761141615964776000,2.75377587890625,0.053900014609098434,-0.5663352608680725,1.179244041442871
1761141615974835000,2.7638349609375,-0.09130910784006119,-0.7552119493484497,1.2229199409484863
1761141615984894000,2.77389404296875,-0.27757325768470764,-0.7188240885734558,1.016242504119873
1761141615994954000,2.7839541015625,-0.39867544174194336,-0.3435703217983246,0.6598842740058899
1761141616005013000,2.794012939453125,-0.40464574098587036,0.049136485904455185,0.27072080969810486
1761141616015072000,2.804072021484375,-0.35131460428237915,0.31539133191108704,-0.03301642835140228
1761141616025131000,2.814131103515625,-0.29622912406921387,0.38782620429992676,-0.22416990995407104
1761141616035190000,2.82418994140625,-0.2620495855808258,0.30255791544914246,-0.33707329630851746
1761141616045250000,2.83425,-0.2675948441028595,0.18217456340789795,-0.38245120644569397
1761141616055309000,2.84430908203125,-0.31201237440109253,0.08903716504573822,-0.3513143062591553
1761141616065368000,2.8543681640625,-0.3839784562587738,-0.027820473536849022,-0.20461995899677277
1761141616075427000,2.864427001953125,-0.4488668441772461,-0.15206152200698853,0.06489482522010803
1761141616085486800,2.87448681640625,-0.4492489695549011,-0.2804565727710724,0.42142921686172485
1761141616095546000,2.884546142578125,-0.3795956075191498,-0.3754299581050873,0.7844739556312561
1761141616105604900,2.89460498046875,-0.29400306940078735,-0.4402362108230591,1.053541898727417
1761141616115664100,2.9046640625,-0.1831258237361908,-0.4466022253036499,1.1914560794830322
1761141616125724200,2.91472412109375,-0.05611204355955124,-0.3950028717517853,1.2161003351211548
1761141616135783000,2.924782958984375,0.045231353491544724,-0.3077031075954437,1.161600947380066
1761141616145842200,2.93484228515625,0.09160947799682617,-0.3114253580570221,1.0449445247650146
1761141616155901000,2.94490087890625,0.04588193818926811,-0.42948755621910095,0.9119636416435242
1761141616165960200,2.954960205078125,-0.004086709581315517,-0.6080802083015442,0.8481485843658447
1761141616176020000,2.96502001953125,-0.06443367153406143,-0.860646665096283,0.8746718168258667
1761141616186079000,2.975078857421875,-0.06759083271026611,-1.0217125415802002,0.9857430458068848
1761141616196138000,2.985137939453125,0.009622466750442982,-1.0957956314086914,1.1080827713012695
1761141616206197000,2.995197021484375,0.12246491014957428,-1.13185453414917,1.2144209146499634
1761141616216257000,3.005257080078125,0.24311117827892303,-1.0516468286514282,1.3400839567184448
1761141616226316000,3.01531591796875,0.4130927622318268,-0.8261345624923706,1.5325804948806763
1761141616236375000,3.025375,0.6081775426864624,-0.5400162935256958,1.728374719619751
1761141616246434000,3.03543408203125,0.713972270488739,-0.45257896184921265,1.8254293203353882
1761141616256494000,3.045494140625,0.6123687028884888,-0.8349119424819946,1.8188576698303223
1761141616266552800,3.055552734375,0.4093620777130127,-1.6331696510314941,1.721155047416687
1761141616276612000,3.065612060546875,0.14805486798286438,-2.4090142250061035,1.4477152824401855
1761141616286670800,3.0756708984375,-0.1308743804693222,-2.6814863681793213,1.1452144384384155
1761141616296731000,3.08573095703125,-0.2916819155216217,-2.3122293949127197,0.9570993781089783
1761141616306790100,3.0957900390625,-0.17445378005504608,-1.766945242881775,0.6581924557685852
1761141616316849000,3.105848876953125,0.2449869066476822,-1.3989193439483643,0.21776874363422394
1761141616326908200,3.115908203125,0.775291919708252,-0.9156225323677063,-0.13357028365135193
1761141616336967000,3.125966796875,1.0751347541809082,-0.2641800343990326,-0.33855140209198
1761141616347027000,3.13602685546875,0.9998867511749268,0.4936007261276245,-0.3497921824455261
1761141616357086000,3.1460859375,0.6688838005065918,1.2748578786849976,0.10032786428928375
1761141616367145000,3.15614501953125,0.3088507354259491,1.8049571514129639,0.7197394371032715
1761141616377204000,3.166203857421875,-0.023341858759522438,2.0925912857055664,1.3429337739944458
1761141616387264000,3.176263916015625,-0.050076477229595184,2.1640849113464355,1.7568525075912476
1761141616397323000,3.186322998046875,0.19548535346984863,1.2803435325622559,1.712963342666626
1761141616407382000,3.196382080078125,0.5438510775566101,0.31226614117622375,1.402820348739624
1761141616417440800,3.206440673828125,0.1900583654642105,0.273281455039978,0.6212592720985413
1761141616427501000,3.2165009765625,-0.7358639240264893,0.9093618392944336,-0.9577195048332214
1761141616437560000,3.22656005859375,-1.1910996437072754,1.6518651247024536,-3.043905258178711
1761141616447619000,3.236619140625,-0.9999675154685974,2.8586554527282715,-4.314346790313721
1761141616457678000,3.246677978515625,-0.5233437418937683,4.4056315422058105,-4.022518157958984
1761141616467737900,3.25673779296875,0.19158880412578583,5.0840373039245605,-2.4158785343170166
1761141616477797000,3.266797119140625,1.0006470680236816,3.8889870643615723,-0.44308096170425415
1761141616487855900,3.27685595703125,1.8287099599838257,1.5122894048690796,1.5707067251205444
1761141616497915100,3.2869150390625,2.327033281326294,-1.0119901895523071,3.4837613105773926
1761141616507975200,3.29697509765625,2.3101418018341064,-2.6987390518188477,4.6321635246276855
1761141616518034000,3.307033935546875,1.9365187883377075,-3.010235071182251,4.580320358276367
1761141616528093200,3.31709326171875,1.4290715456008911,-2.115016460418701,3.5073540210723877
1761141616538152000,3.32715185546875,0.8824686408042908,-0.6030851006507874,1.8482749462127686
1761141616548211200,3.337211181640625,0.3718564212322235,0.8576554656028748,0.20374342799186707
1761141616558271000,3.34727099609375,-0.028273696079850197,2.030590057373047,-1.0499300956726074
1761141616568330000,3.357330078125,-0.3880494236946106,2.6877338886260986,-1.7920222282409668
1761141616578389000,3.367388916015625,-0.6463353037834167,2.9384708404541016,-1.9768760204315186
1761141616588448000,3.377447998046875,-0.799085259437561,2.8356080055236816,-1.7143160104751587
1761141616598507800,3.3875078125,-0.9064260721206665,2.345116376876831,-1.1302320957183838
1761141616608567000,3.397567138671875,-0.9290125370025635,1.564624547958374,-0.36719265580177307
1761141616618626000,3.4076259765625,-0.8734890818595886,0.7327864170074463,0.3338402807712555
1761141616628685000,3.41768505859375,-0.8287522792816162,0.07011133432388306,0.8573989868164062
1761141616638745000,3.4277451171875,-0.8231393694877625,-0.4202314615249634,1.1865592002868652
1761141616648803800,3.437803955078125,-0.8211393356323242,-0.7760239243507385,1.3133302927017212
1761141616658863000,3.447863037109375,-0.7821887731552124,-0.9297360181808472,1.2400120496749878
1761141616668921900,3.457921875,-0.7005831003189087,-0.877281665802002,0.9850351214408875
1761141616678982100,3.467982177734375,-0.6141544580459595,-0.7317534685134888,0.6349269151687622
1761141616689041000,3.478041015625,-0.551070511341095,-0.6741541028022766,0.28345149755477905
1761141616699100000,3.488099853515625,-0.5108860731124878,-0.7842078804969788,0.0014629808720201254
1761141616709159000,3.498158935546875,-0.4643688499927521,-1.0016043186187744,-0.1804201751947403
1761141616719219000,3.508218994140625,-0.39954593777656555,-1.265115737915039,-0.25963059067726135
1761141616729278200,3.5182783203125,-0.34097835421562195,-1.4348734617233276,-0.26284003257751465
1761141616739337000,3.5283369140625,-0.3196679949760437,-1.3544676303863525,-0.2566596269607544
1761141616749396000,3.53839599609375,-0.3259364068508148,-1.0337469577789307,-0.2856424152851105
1761141616759456000,3.5484560546875,-0.3028737008571625,-0.6373271942138672,-0.34373289346694946
1761141616769515000,3.558514892578125,-0.2579781711101532,-0.35178545117378235,-0.4524666368961334
1761141616779574000,3.568573974609375,-0.21097950637340546,-0.1971559226512909,-0.6051992177963257
1761141616789633000,3.578633056640625,-0.1329365074634552,-0.10185477137565613,-0.7465236783027649
1761141616799693000,3.588693115234375,-0.01728581078350544,-0.07718510925769806,-0.845363438129425
1761141616809752000,3.598751953125,0.13390108942985535,-0.1810774952173233,-0.9245036840438843
1761141616819811000,3.60881103515625,0.27645185589790344,-0.4102693796157837,-0.9820724725723267
1761141616829870000,3.6188701171875,0.3566553592681885,-0.7337955236434937,-0.9696280360221863
1761141616839928800,3.6289287109375,0.32706204056739807,-1.006760835647583,-0.8566247820854187
1761141616849988900,3.63898876953125,0.24685275554656982,-1.059943437576294,-0.6794426441192627
1761141616860048100,3.649048095703125,0.27753666043281555,-1.0421148538589478,-0.5322439074516296
1761141616870107000,3.65910693359375,0.33314716815948486,-0.7600647807121277,-0.4321179687976837
1761141616880166100,3.669166259765625,0.44108057022094727,-0.37921732664108276,-0.3287851810455322
1761141616890226000,3.679225830078125,0.5218796730041504,-0.10997693240642548,-0.3416835069656372
1761141616900285000,3.689284912109375,0.49231401085853577,-0.09456708282232285,-0.5343088507652283
1761141616910344000,3.699343994140625,0.24947857856750488,-0.21646477282047272,-0.7727950215339661
1761141616920403000,3.70940283203125,-0.03895587846636772,-0.22797656059265137,-0.9310650825500488
1761141616930463000,3.719462890625,-0.08967386186122894,-0.1535935252904892,-1.0468430519104004
1761141616940522000,3.72952197265625,-0.026273848488926888,-0.042914412915706635,-1.0858663320541382
1761141616950581000,3.7395810546875,0.08355657756328583,0.07812625169754028,-0.9918906092643738
1761141616960640000,3.749639892578125,0.1941763013601303,0.1253472864627838,-0.8863306045532227
1761141616970700000,3.759699951171875,0.24702200293540955,0.14860834181308746,-0.9086436033248901
1761141616980758800,3.7697587890625,0.23481275141239166,0.12079295516014099,-1.0636407136917114
1761141616990818000,3.779818115234375,0.13894599676132202,0.02308543585240841,-1.2146357297897339
1761141617000876800,3.789876708984375,-0.06638745218515396,-0.11833614110946655,-1.252964735031128
1761141617010937000,3.79993701171875,-0.16689150035381317,-0.070942722260952,-1.0849839448928833
1761141617020995800,3.809995849609375,0.012924074195325375,0.023233307525515556,-0.8953889608383179
1761141617031054800,3.820054931640625,0.28268828988075256,0.09023517370223999,-0.8612157702445984
1761141617041113900,3.83011376953125,0.48685765266418457,-0.09089386463165283,-0.937599241733551
1761141617051174000,3.840173828125,0.5454015731811523,-0.7098411917686462,-1.0212289094924927
1761141617061233200,3.850233154296875,0.46587637066841125,-1.3687487840652466,-1.0200854539871216
1761141617071292000,3.8602919921875,0.3532167375087738,-1.7447938919067383,-0.8672537803649902
1761141617081351200,3.87035107421875,0.3468208909034729,-1.4614851474761963,-0.5365844964981079
1761141617091411000,3.880410888671875,0.24537281692028046,-0.9309685826301575,-0.08207487314939499
1761141617101470000,3.890469970703125,0.14639589190483093,-0.755716860294342,0.4753686487674713
1761141617111529000,3.900529052734375,0.019032329320907593,-0.9555282592773438,0.9068893790245056
1761141617121588000,3.910587890625,-0.15802526473999023,-1.3126622438430786,1.1639955043792725
1761141617131648000,3.92064794921875,-0.3517068922519684,-1.8533763885498047,1.18192458152771
1761141617141707000,3.93070703125,-0.566287100315094,-1.9271336793899536,0.9267387390136719
1761141617151766000,3.94076611328125,-0.6979303956031799,-1.5799142122268677,0.4805554747581482
1761141617161825000,3.950824951171875,-0.715023934841156,-0.9557499885559082,0.10637225955724716
1761141617171885000,3.960885009765625,-0.7644850015640259,-0.2537461519241333,-0.07597144693136215
1761141617181943800,3.97094384765625,-0.8045395016670227,0.30343854427337646,-0.061156015843153
1761141617192003000,3.981003173828125,-0.7699519991874695,0.561456024646759,-0.09306241571903229
1761141617202061800,3.991061767578125,-0.7090239524841309,0.6614105701446533,-0.133056178689003
1761141617212121900,4.001121826171875,-0.5030153393745422,0.7476995587348938,-0.12259864807128906
1761141617222180900,4.011180908203125,-0.28642523288726807,0.7054559588432312,-0.09687250852584839
1761141617232239900,4.021239990234375,-0.12353771924972534,0.4636495113372803,-0.060099802911281586
1761141617242299000,4.031298828125,0.017247624695301056,0.29554465413093567,0.025987941771745682
1761141617252359000,4.04135888671875,0.11726509779691696,0.3809531629085541,0.2367926687002182
1761141617262418000,4.05141796875,0.15978245437145233,0.6735711693763733,0.5564460754394531
1761141617272477000,4.061476806640625,0.03876679763197899,0.8718169331550598,0.8147271275520325
1761141617282536000,4.071535888671875,-0.15638963878154755,1.121412754058838,0.9155370593070984
1761141617292596000,4.081595947265625,-0.26451388001441956,1.4592036008834839,0.9353280663490295
1761141617302655000,4.091655029296875,-0.21592557430267334,1.7754287719726562,0.8903685808181763
1761141617312714000,4.1017138671875,-0.06643440574407578,1.9223212003707886,0.7956613898277283
1761141617322773000,4.11177294921875,0.0645262748003006,1.8036614656448364,0.6944106817245483
1761141617332833000,4.1218330078125,0.13935671746730804,1.3851250410079956,0.5927808880805969
1761141617342892000,4.13189208984375,0.14845514297485352,0.871181070804596,0.5007297992706299
1761141617352951000,4.141950927734375,0.06183025240898132,0.5285789966583252,0.44217947125434875
1761141617363010000,4.152010009765625,-0.11343344300985336,0.32128891348838806,0.4491761326789856
1761141617373070000,4.162070068359375,-0.34083646535873413,0.18652649223804474,0.47019729018211365
1761141617383128800,4.17212890625,-0.5745331048965454,0.1754421591758728,0.4261654019355774
1761141617393188000,4.18218798828125,-0.7741401195526123,0.34866711497306824,0.2669646143913269
1761141617403246800,4.192246826171875,-0.8800498247146606,0.6292575001716614,0.004804625641554594
1761141617413307000,4.202306884765625,-0.8709756135940552,0.9138059020042419,-0.3176765441894531
1761141617423366100,4.2123662109375,-0.7696945667266846,1.2567453384399414,-0.66757732629776
1761141617433425000,4.2224248046875,-0.6384203433990479,1.5921870470046997,-0.9835619926452637
1761141617443484200,4.232484130859375,-0.5340726375579834,1.7381256818771362,-1.1923695802688599
1761141617453544000,4.2425439453125,-0.48451581597328186,1.7985295057296753,-1.2624976634979248
1761141617463603000,4.25260302734375,-0.4741577208042145,1.7427978515625,-1.2175883054733276
1761141617473662000,4.262661865234375,-0.44252920150756836,1.565710425376892,-1.1007636785507202
1761141617483721000,4.272720947265625,-0.4490411877632141,1.341719627380371,-0.9472358226776123
1761141617493780700,4.28278076171875,-0.5165368914604187,1.1937657594680786,-0.7956944108009338
1761141617503840000,4.292840087890625,-0.5865218639373779,1.0512880086898804,-0.5582067370414734
1761141617513898800,4.302898681640625,-0.6371945738792419,0.6695551872253418,-0.2472614049911499
1761141617523958000,4.3129580078125,-0.6756738424301147,0.07786818593740463,0.12500351667404175
1761141617534018000,4.32301806640625,-0.7022601962089539,-0.5865193605422974,0.46361029148101807
1761141617544076800,4.333076904296875,-0.6997904181480408,-1.23466157913208,0.5808700323104858
1761141617554136000,4.343135986328125,-0.5649784207344055,-1.6811087131500244,0.48237523436546326
1761141617564194800,4.35319482421875,-0.3373473882675171,-1.866448998451233,0.32882213592529297
1761141617574255000,4.363255126953125,-0.23718973994255066,-1.8205125331878662,0.17264840006828308
1761141617584313900,4.37331396484375,-0.26310256123542786,-1.8321737051010132,-0.05980934202671051
1761141617594372900,4.383372802734375,-0.2625996768474579,-2.0048673152923584,-0.7171019911766052
1761141617604432000,4.393431884765625,-0.3061769902706146,-1.734250545501709,-1.5173557996749878
1761141617614492000,4.403491943359375,-0.41454964876174927,-0.9853132367134094,-2.1688315868377686
1761141617624551200,4.41355126953125,-0.4859362244606018,-0.4664250910282135,-2.7074525356292725
1761141617634610000,4.42360986328125,-0.7125018239021301,-0.3513425886631012,-3.0486361980438232
1761141617644670000,4.433669921875,-1.0135953426361084,-0.34914547204971313,-3.056109666824341
1761141617654729000,4.44372900390625,-1.1582316160202026,-0.06204277649521828,-2.691215753555298
1761141617664788000,4.4537880859375,-1.1036115884780884,0.6553264856338501,-1.8271182775497437
1761141617674847000,4.463846923828125,-0.9201437830924988,1.357912540435791,-0.5962293148040771
1761141617684907000,4.473906982421875,-0.6991488337516785,1.4992235898971558,0.46214550733566284
1761141617694965800,4.4839658203125,-0.5761662721633911,1.2748429775238037,1.1027438640594482
1761141617705025000,4.49402490234375,-0.4660017192363739,0.8811768293380737,1.282461166381836
1761141617715084000,4.504083984375,-0.3302120864391327,0.2499830275774002,1.0887973308563232
1761141617725143800,4.514143798828125,-0.28272873163223267,-0.36633023619651794,0.8416898250579834
1761141617735203000,4.524203125,-0.28211286664009094,-0.5685274004936218,0.6530716419219971
1761141617745261800,4.53426171875,-0.23282361030578613,-0.22968651354312897,0.5799385905265808
1761141617755321000,4.544321044921875,-0.029462488368153572,0.37295109033584595,0.669974148273468
1761141617765380900,4.554380859375,0.2082616537809372,0.6921834349632263,0.8172155618667603
1761141617775440000,4.56443994140625,0.3801064193248749,0.495998740196228,0.9729017019271851
1761141617785499000,4.574498779296875,0.33503028750419617,-0.22361615300178528,1.1284120082855225
1761141617795558000,4.584557861328125,-0.04450737312436104,-0.9405381083488464,1.2218356132507324
1761141617805618000,4.594617919921875,-0.2854832112789154,-1.0776253938674927,1.1382770538330078
1761141617815677000,4.604677001953125,-0.291034460067749,-0.5839670896530151,0.7542823553085327
1761141617825736200,4.614736083984375,-0.25175923109054565,0.1419704109430313,0.2875843942165375
1761141617835795200,4.624795166015625,-0.2021886557340622,0.6594858765602112,-0.05382566526532173
1761141617845855200,4.634855224609375,-0.10793325304985046,0.8396726846694946,-0.2250770479440689
1761141617855914200,4.644914306640625,-0.0180166345089674,0.7841612696647644,-0.2887153625488281
1761141617865973200,4.65497314453125,0.0369933545589447,0.6345946788787842,-0.3238834738731384
1761141617876032000,4.665031982421875,0.04252983257174492,0.48105326294898987,-0.40346559882164
1761141617886092300,4.67509228515625,-0.017355872318148613,0.44309335947036743,-0.5575553178787231
1761141617896151300,4.6851513671875,-0.11337780952453613,0.3963499069213867,-0.7745965123176575
1761141617906210300,4.695210205078125,-0.18840225040912628,0.2543528079986572,-0.9794247150421143
1761141617916269300,4.705269287109375,-0.24372510612010956,0.1061972975730896,-1.107908010482788
1761141617926329000,4.7153291015625,-0.27181053161621094,0.011972528882324696,-1.153570294380188
1761141617936388400,4.725388427734375,-0.24997009336948395,0.016931872814893723,-1.1236572265625
1761141617946447000,4.735447021484375,-0.19196352362632751,0.030542489141225815,-1.0359307527542114
1761141617956507100,4.745507080078125,-0.1490706503391266,0.013504844158887863,-0.9247673749923706
1761141617966566400,4.75556640625,-0.15078839659690857,0.017011960968375206,-0.8303330540657043
1761141617976625200,4.765625244140625,-0.19556394219398499,0.057855404913425446,-0.7762569785118103
1761141617986684400,4.775684326171875,-0.25030308961868286,0.10230356454849243,-0.7467265129089355
1761141617996744200,4.785744140625,-0.30544793605804443,0.03125261515378952,-0.747742772102356
1761141618006803200,4.79580322265625,-0.3606555163860321,-0.12769894301891327,-0.725169837474823
1761141618016862200,4.8058623046875,-0.3911212980747223,-0.25893792510032654,-0.6581276655197144
1761141618026921200,4.815921142578125,-0.41453954577445984,-0.36029356718063354,-0.582686185836792
1761141618036981000,4.82598095703125,-0.43491417169570923,-0.38745954632759094,-0.4753202199935913
1761141618047040300,4.836040283203125,-0.4550710916519165,-0.3248020112514496,-0.33518895506858826
1761141618057099000,4.84609912109375,-0.47503969073295593,-0.24772508442401886,-0.15905003249645233
1761141618067158300,4.856158203125,-0.49848321080207825,-0.2286994606256485,0.014826684258878231
1761141618077218300,4.86621826171875,-0.5346222519874573,-0.22505126893520355,0.15946228802204132
1761141618087277000,4.876277099609375,-0.5164978504180908,-0.2853497564792633,0.25197678804397583
1761141618097336300,4.88633642578125,-0.4593576192855835,-0.4415777027606964,0.33150455355644226
1761141618107395000,4.89639501953125,-0.444303035736084,-0.48270994424819946,0.48388421535491943
1761141618117455400,4.906455322265625,-0.4156709313392639,-0.6992179751396179,0.6513495445251465
1761141618127514000,4.91651416015625,-0.3820783495903015,-1.0172737836837769,0.7815397381782532
1761141618137573000,4.926572998046875,-0.314288854598999,-1.0514750480651855,0.8813848495483398
1761141618147632000,4.936632080078125,-0.27764856815338135,-0.7528879642486572,0.8429431915283203
1761141618157692200,4.946692138671875,-0.2651679813861847,-0.5016340613365173,0.6950850486755371
1761141618167751400,4.95675146484375,-0.2803139090538025,-0.47332119941711426,0.5583016276359558
1761141618177810200,4.96681005859375,-0.39234891533851624,-0.7342110872268677,0.4660762846469879
1761141618187870200,4.9768701171875,-0.6091842651367188,-1.096434235572815,0.4400468170642853
1761141618197929200,4.98692919921875,-0.7669951915740967,-1.1912367343902588,0.3400438129901886
1761141618207988200,4.99698828125,-0.7764992117881775,-0.9548015594482422,0.05381020903587341
1761141618218047200,5.007047119140625,-0.6421446204185486,-0.5363749861717224,-0.18320344388484955
1761141618228107300,5.017107177734375,-0.3905792534351349,-0.28769561648368835,-0.27014660835266113
1761141618238166000,5.027166015625,-0.2556900978088379,-0.4564868211746216,-0.29435497522354126
1761141618248225300,5.037225341796875,-0.30975091457366943,-0.6358254551887512,-0.1655048429965973
1761141618258284000,5.047283935546875,-0.4491790235042572,-0.4481280446052551,0.1680324375629425
1761141618268344000,5.057343994140625,-0.4759267568588257,0.08113262802362442,0.5146015882492065
1761141618278403300,5.0674033203125,-0.34609276056289673,0.5347234010696411,0.6618562340736389
1761141618288462000,5.077462158203125,-0.16686467826366425,0.6085411310195923,0.5951054692268372
1761141618298521300,5.087521240234375,-0.04343440756201744,0.3762039542198181,0.3940117657184601
1761141618308581000,5.0975810546875,0.008813881315290928,0.07418018579483032,0.1375506967306137
1761141618318640000,5.10764013671875,0.016830436885356903,-0.09208568930625916,-0.15838779509067535
1761141618328699100,5.11769921875,-0.02457505837082863,-0.02483448199927807,-0.4438547194004059
1761141618338758100,5.127758056640625,-0.05780306085944176,0.32080087065696716,-0.6076242923736572
1761141618348818200,5.137818115234375,-0.06004144623875618,0.8280036449432373,-0.6903935074806213
1761141618358877200,5.147877197265625,-0.119816355407238,1.1485470533370972,-0.7826502919197083
1761141618368936200,5.157936279296875,-0.295068621635437,1.0800234079360962,-0.8633893728256226
1761141618378996200,5.167996337890625,-0.45997563004493713,0.8085440993309021,-0.8834603428840637
1761141618389055200,5.17805517578125,-0.46508437395095825,0.6307687759399414,-0.8104934096336365
1761141618399114200,5.1881142578125,-0.3443964123725891,0.6449267268180847,-0.6916952729225159
1761141618409173200,5.19817333984375,-0.42021581530570984,0.6744390726089478,-0.6002750396728516
1761141618419233300,5.2082333984375,-0.4995846152305603,0.712754487991333,-0.5173599123954773
1761141618429292300,5.218292236328125,-0.42645204067230225,0.6897304058074951,-0.37114542722702026
1761141618439351300,5.228351318359375,-0.27292460203170776,0.5762116312980652,-0.19267737865447998
1761141618449410300,5.238410400390625,-0.10865870863199234,0.4529528021812439,-0.014719625003635883
1761141618459470300,5.24847021484375,0.058590810745954514,0.31078171730041504,0.11293203383684158
1761141618469529000,5.258529052734375,0.23500500619411469,0.1088145300745964,0.1831798255443573
1761141618479588400,5.26858837890625,0.34487369656562805,-0.07019810378551483,0.2407972365617752
1761141618489647000,5.278647216796875,0.2983706295490265,-0.05471208691596985,0.14690695703029633
1761141618499707100,5.28870703125,0.1704196184873581,0.20541056990623474,-0.017278967425227165
1761141618509766100,5.29876611328125,0.034473489969968796,0.46393612027168274,-0.0856095552444458
1761141618519825200,5.3088251953125,-0.0633254200220108,0.5786298513412476,-0.058917850255966187
1761141618529884200,5.31888427734375,-0.09354644268751144,0.5483547449111938,0.001996368635445833
1761141618539944200,5.328944091796875,-0.07753381133079529,0.33396783471107483,0.03528628498315811
1761141618550003200,5.339003173828125,-0.0006206518737599254,0.0753415897488594,0.018279604613780975
1761141618560062200,5.349062255859375,0.1051359549164772,-0.1317177265882492,-0.024486061185598373
1761141618570122200,5.359122314453125,0.1940232217311859,-0.2664896547794342,-0.05149104818701744
1761141618580181200,5.36918115234375,0.24544988572597504,-0.3199158012866974,-0.022956915199756622
1761141618590240300,5.379240234375,0.2764240503311157,-0.26141148805618286,0.04522133618593216
1761141618600299000,5.389299072265625,0.2756710946559906,-0.1148374080657959,0.12812505662441254
1761141618610359300,5.399359375,0.2526840269565582,0.12574777007102966,0.19000306725502014
1761141618620418300,5.409418212890625,0.1925257444381714,0.3603401780128479,0.23208589851856232
1761141618630477300,5.419477294921875,0.08364799618721008,0.5376278162002563,0.24783876538276672
1761141618640536300,5.429536376953125,-0.0296306274831295,0.5900761485099792,0.24776072800159454
1761141618650596000,5.43959619140625,-0.1200743094086647,0.5453346371650696,0.27280181646347046
1761141618660655400,5.4496552734375,-0.18224738538265228,0.44894811511039734,0.3036435544490814
1761141618670714000,5.459714111328125,-0.17904573678970337,0.37024104595184326,0.33634957671165466
1761141618680774100,5.469774169921875,-0.09910669177770615,0.3101769983768463,0.39690253138542175
1761141618690833200,5.479833251953125,0.0639466792345047,0.3102087080478668,0.4872039556503296
1761141618700892200,5.48989208984375,0.2877599000930786,0.3069472312927246,0.5013601779937744
1761141618710951200,5.499951171875,0.5554714798927307,0.3246000111103058,0.40435105562210083
1761141618721011200,5.51001123046875,0.8614521622657776,0.3907926082611084,0.24960950016975403
1761141618731070200,5.5200703125,1.196825623512268,0.5579949021339417,0.09850359708070755
1761141618741129200,5.530129150390625,1.5843275785446167,0.7352500557899475,0.0022215857170522213
1761141618751188200,5.540188232421875,1.9611643552780151,0.8401637077331543,-0.08396309614181519
1761141618761248000,5.550248046875,2.3595094680786133,1.0546437501907349,-0.26996293663978577
1761141618771307300,5.560307373046875,2.7706809043884277,1.2256765365600586,-0.5191490650177002
1761141618781366000,5.570365966796875,3.0703635215759277,1.5742156505584717,-0.5474072694778442
1761141618791426300,5.58042626953125,3.2771267890930176,1.7994111776351929,-0.5343668460845947
1761141618801485300,5.5904853515625,3.1940746307373047,1.8781745433807373,-0.8174484372138977
1761141618811544000,5.6005439453125,2.7282772064208984,1.0110697746276855,-1.6097482442855835
1761141618821603300,5.610603271484375,2.0456647872924805,-0.13882850110530853,-2.218846321105957
1761141618831663600,5.62066357421875,1.8039889335632324,-0.7900222539901733,-2.237834930419922
1761141618841722400,5.630722412109375,2.093355655670166,-0.5616223812103271,-1.9975829124450684
1761141618851781600,5.64078173828125,2.6253859996795654,0.0646418109536171,-1.8196771144866943
1761141618861840400,5.65084033203125,3.2141473293304443,0.8702318668365479,-1.4706649780273438
1761141618871900700,5.660900634765625,3.67814040184021,1.7488107681274414,-0.9878352284431458
1761141618881959700,5.670959716796875,4.063500881195068,2.551801919937134,-0.6269922852516174
1761141618892018400,5.681018310546875,3.6619648933410645,3.1048083305358887,-0.6198781728744507
1761141618902078700,5.69107861328125,3.2369208335876465,3.0135929584503174,-0.8669129610061646
1761141618912137500,5.701137451171875,3.012481689453125,2.3985228538513184,-1.2011419534683228
1761141618922196700,5.71119677734375,2.706936836242676,1.5634511709213257,-1.53532075881958
1761141618932255500,5.72125537109375,2.452505111694336,0.7369399070739746,-1.8283159732818604
1761141618942315500,5.7313154296875,2.367748975753784,-0.044200778007507324,-2.0258095264434814
1761141618952374800,5.741374755859375,2.350447654724121,-0.8236608505249023,-2.094486713409424
1761141618962433500,5.75143359375,2.2556304931640625,-1.380725622177124,-1.781537413597107
1761141618972492800,5.761492919921875,1.6436764001846313,0.21711596846580505,-0.5262615084648132
1761141618982552600,5.771552490234375,1.5360822677612305,-0.17702414095401764,-0.08748476952314377
1761141618992611600,5.781611572265625,1.38706636428833,-0.4698117971420288,0.46625247597694397
1761141619002670600,5.791670654296875,1.293025016784668,-0.6867148876190186,0.8116941452026367
1761141619012730600,5.801730712890625,1.1018699407577515,-0.6626337766647339,0.826830267906189
1761141619022789400,5.811789306640625,0.9065486192703247,-0.6565660238265991,0.8368759751319885
1761141619032848600,5.8218486328125,0.8160607814788818,-0.5789804458618164,0.8368865847587585
1761141619042907400,5.831907470703125,0.8500012159347534,-0.4451606571674347,0.8320363163948059
1761141619052967400,5.841967529296875,0.9826487302780151,-0.17022337019443512,0.8219706416130066
1761141619063026700,5.852026611328125,1.259846568107605,0.40388938784599304,0.6637495160102844
1761141619073085400,5.86208544921875,1.5526922941207886,1.2015857696533203,0.32726043462753296
1761141619083144700,5.872144775390625,1.8128193616867065,1.7687541246414185,-0.04576585814356804
1761141619093204500,5.88220458984375,1.9859237670898438,1.729644775390625,-0.3716907203197479
1761141619103263700,5.892263671875,2.028820276260376,1.331250548362732,-0.5649264454841614
1761141619113322500,5.902322509765625,1.9540783166885376,1.0435348749160767,-0.6950122714042664
1761141619123382500,5.912382568359375,1.6711968183517456,0.8153917789459229,-0.7930956482887268
1761141619133441800,5.92244189453125,1.043782114982605,1.3817873001098633,-0.7562114000320435
1761141619143500500,5.93250048828125,0.3736317753791809,2.444460868835449,-0.7625643014907837
1761141619153559800,5.942559814453125,0.15715649724006653,2.1148271560668945,-0.8153731822967529
1761141619163619600,5.95261962890625,0.3762167990207672,1.315572738647461,-0.22206535935401917
1761141619173678600,5.9626787109375,0.45799580216407776,0.7755293846130371,0.3130686283111572
1761141619183737600,5.972737548828125,0.6551505923271179,0.13797621428966522,0.6946336627006531
1761141619193796600,5.982796630859375,0.8445037007331848,-0.27233994007110596,1.007793664932251
1761141619203856400,5.9928564453125,1.0692497491836548,-0.4880515933036804,1.18952214717865
1761141619213915600,6.00291552734375,1.298247218132019,-0.5622072815895081,1.2274665832519531
1761141619223974400,6.012974365234375,1.3209009170532227,-0.43155011534690857,1.075650691986084
1761141619234034400,6.023034423828125,1.1871087551116943,0.03495342284440994,0.7388659119606018
1761141619244093700,6.03309375,0.9932254552841187,0.1429329514503479,0.4330839514732361
1761141619254152400,6.04315234375,0.7330790758132935,0.19777357578277588,0.2756844758987427
1761141619264211700,6.053211669921875,0.5339160561561584,0.31886017322540283,0.15340471267700195
1761141619274271500,6.063271484375,0.48680663108825684,0.8031847476959229,0.00032941234530881047
1761141619284330500,6.07333056640625,0.5929487347602844,1.267889142036438,-0.14331132173538208
1761141619294389500,6.083389404296875,0.7787052989006042,1.407077431678772,-0.03745200112462044
1761141619304448500,6.093448486328125,1.0033332109451294,1.4774446487426758,0.21323472261428833
1761141619314508800,6.1035087890625,1.2402698993682861,1.527557134628296,0.5032926797866821
1761141619324567600,6.113567626953125,1.5025943517684937,1.5984936952590942,0.7410560250282288
1761141619334626600,6.12362646484375,1.822201132774353,1.774401068687439,0.9300475120544434
1761141619344686600,6.1336865234375,2.284569025039673,1.424100399017334,1.3321317434310913
1761141619354745600,6.14374560546875,2.4508585929870605,1.2867659330368042,1.902998447418213
1761141619364804600,6.1538046875,2.3192248344421387,0.5587725043296814,2.2928268909454346
1761141619374863600,6.163863525390625,1.6926535367965698,0.6779886484146118,2.717233180999756
1761141619384923600,6.173923583984375,0.7297402620315552,0.9897361993789673,3.3418009281158447
1761141619394982700,6.183982666015625,-0.3630354404449463,0.019121063873171806,3.6696617603302
1761141619405041700,6.194041748046875,-0.5506532192230225,-0.7803729176521301,3.0506184101104736
1761141619415101400,6.204101318359375,0.02377062290906906,-1.5043634176254272,2.990642547607422
1761141619425160700,6.21416064453125,1.222265601158142,-0.3734520971775055,3.757476568222046
1761141619435219500,6.224219482421875,2.1498427391052246,-1.2377890348434448,4.842960834503174
1761141619445278700,6.23427880859375,2.2267141342163086,-1.377368450164795,5.177613258361816
1761141619455338500,6.24433837890625,1.4780254364013672,0.2274172008037567,3.98005747795105
1761141619465397500,6.2543974609375,0.4135965406894684,2.554328203201294,0.5539326667785645
1761141619475456500,6.26445654296875,0.040655989199876785,1.9973958730697632,-2.2074763774871826
1761141619485515500,6.274515625,0.1536175161600113,1.2564928531646729,-3.7201948165893555
1761141619495575600,6.284575439453125,0.272949755191803,1.6035763025283813,-4.331208229064941
1761141619505634600,6.294634521484375,0.5040565729141235,2.159324884414673,-4.301921367645264
1761141619515693600,6.304693603515625,0.7696197628974915,2.5472590923309326,-3.9963326454162598
1761141619525753600,6.314753662109375,0.7936067581176758,2.9059131145477295,-3.6457231044769287
1761141619535812600,6.3248125,0.6211044788360596,3.2232229709625244,-3.24017596244812
1761141619545871600,6.33487158203125,0.4891122281551361,3.3785109519958496,-2.7894372940063477
1761141619555930600,6.3449306640625,0.5227583646774292,3.2114803791046143,-2.3335750102996826
1761141619565990700,6.35499072265625,0.666769802570343,2.6488518714904785,-1.9760938882827759
1761141619576049700,6.365049560546875,0.9928296804428101,2.0546936988830566,-1.8302221298217773
1761141619586108700,6.375108642578125,1.650167465209961,1.5145905017852783,-1.751512050628662
1761141619596168400,6.38516845703125,2.461169958114624,1.190760612487793,-1.4421489238739014
1761141619606227700,6.395227783203125,3.2047433853149414,0.9530426859855652,-0.9939941763877869
1761141619616286500,6.405286376953125,3.749445676803589,0.475994348526001,-0.43153274059295654
1761141619626345700,6.415345703125,3.9532923698425293,0.20765988528728485,0.15723754465579987
1761141619636405500,6.425405517578125,3.3856167793273926,0.31396740674972534,0.7330958247184753
1761141619646464500,6.435464599609375,2.3511154651641846,0.28687384724617004,1.2285007238388062
1761141619656523500,6.4455234375,1.5698585510253906,-0.06926191598176956,1.4305784702301025
1761141619666582500,6.45558251953125,1.2439700365066528,-0.3974672853946686,1.304722547531128
1761141619676642600,6.465642578125,1.2857997417449951,-0.5311702489852905,0.9426711797714233
1761141619686701600,6.47570166015625,1.518892526626587,-0.43758922815322876,0.4475448727607727
1761141619696760600,6.485760498046875,1.796820878982544,-0.17847321927547455,-0.1313842535018921
1761141619706820600,6.495820556640625,2.041264533996582,0.14518718421459198,-0.6897544264793396
1761141619716879600,6.505879638671875,2.1230087280273438,0.49844008684158325,-1.109761357307434
1761141619726938400,6.5159384765625,2.0324623584747314,0.7585275769233704,-1.3427475690841675
1761141619736997600,6.52599755859375,1.7312930822372437,0.8167575597763062,-1.3466951847076416
1761141619747057700,6.5360576171875,1.2092972993850708,0.739777147769928,-1.1434996128082275
1761141619757116700,6.54611669921875,0.5958657264709473,0.6477484107017517,-0.8176518678665161
1761141619767175700,6.55617578125,0.0327969491481781,0.5617289543151855,-0.49088728427886963
1761141619777235500,6.5662353515625,-0.4226115942001343,0.6725050210952759,-0.2437337040901184
1761141619787294700,6.576294677734375,-0.6730218529701233,1.017924427986145,-0.05037324130535126
1761141619797353500,6.586353515625,-0.6611961126327515,1.3479262590408325,0.13081546127796173
1761141619807412700,6.596412841796875,-0.43173590302467346,1.5642515420913696,0.30685144662857056
1761141619817472800,6.60647265625,-0.15692192316055298,1.6849656105041504,0.5354518890380859
1761141619827531500,6.616531494140625,0.012228073552250862,1.7752368450164795,0.8059852719306946
1761141619837590800,6.6265908203125,0.007273261900991201,1.6918854713439941,1.028141975402832
1761141619847650600,6.636650634765625,-0.19389499723911285,1.5184884071350098,1.0991438627243042
1761141619857709600,6.64670947265625,-0.5580199956893921,1.353048324584961,1.0449525117874146
1761141619867768600,6.6567685546875,-0.891949474811554,1.1786922216415405,0.8543388843536377
1761141619877827600,6.66682763671875,-1.1367679834365845,1.0151532888412476,0.5414318442344666
1761141619887887400,6.676887451171875,-1.2642631530761719,0.8720488548278809,0.1275111585855484
1761141619897946600,6.686946533203125,-1.2609888315200806,0.7738889455795288,-0.3323887884616852
1761141619908005400,6.69700537109375,-1.1854642629623413,0.6865707635879517,-0.7676792740821838
1761141619918065700,6.707065673828125,-1.0773625373840332,0.5824068188667297,-1.148909330368042
1761141619928124700,6.717124755859375,-0.9441663026809692,0.49006110429763794,-1.463224172592163
1761141619938183400,6.727183349609375,-0.8199889659881592,0.3773190975189209,-1.6950286626815796
1761141619948242700,6.73724267578125,-0.8230578303337097,0.2340499609708786,-1.8305931091308594
1761141619958302500,6.747302490234375,-1.0283864736557007,0.013225973583757877,-1.8207594156265259
1761141619968361700,6.75736181640625,-1.4292526245117188,-0.16781631112098694,-1.5946731567382812
1761141619978420500,6.76742041015625,-1.99237060546875,-0.22325773537158966,-1.173588752746582
1761141619988480500,6.77748046875,-2.5104589462280273,-0.13029417395591736,-0.547284722328186
1761141619998539800,6.787539794921875,-2.6502370834350586,-0.050914932042360306,0.1160048097372055
1761141620008598500,6.7975986328125,-2.5192935466766357,-0.2955402433872223,0.5850552916526794
1761141620018657800,6.80765771484375,-2.2594339847564697,-0.8220919370651245,0.6338172554969788
1761141620028717600,6.817717529296875,-1.7872174978256226,-1.193530559539795,0.056293632835149765
1761141620038776600,6.827776611328125,-0.9581224322319031,-1.0026805400848389,-1.195345401763916
1761141620048835600,6.837835693359375,-0.29622238874435425,-1.21389639377594,-2.108454942703247
1761141620058894600,6.84789453125,-0.1998809427022934,-1.9823782444000244,-2.1994974613189697
1761141620068954400,6.857954345703125,-0.32055068016052246,-2.619783639907837,-2.075385093688965
1761141620079013600,6.868013671875,-0.2525348663330078,-2.9698023796081543,-1.9431054592132568
1761141620089072400,6.878072265625,0.022820981219410896,-2.9738006591796875,-1.6116899251937866
1761141620099132400,6.88813232421875,0.3933902680873871,-2.5372962951660156,-1.1649811267852783
1761141620109191700,6.898191650390625,0.7825787663459778,-1.8102673292160034,-0.7787744998931885
1761141620119250400,6.90825048828125,1.1151845455169678,-1.0661348104476929,-0.5060188174247742
1761141620129309700,6.918309814453125,1.3235996961593628,-0.47233259677886963,-0.3410136103630066
1761141620139369500,6.928369384765625,1.3582663536071777,-0.08544987440109253,-0.34866300225257874
1761141620149428500,6.938428466796875,1.2401480674743652,0.10400308668613434,-0.548175036907196
1761141620159487500,6.948487548828125,1.0195131301879883,0.23375068604946136,-0.7598620057106018
1761141620169547500,6.958547607421875,0.8152022361755371,0.421462744474411,-0.783161997795105
1761141620179606800,6.968606689453125,0.7310450077056885,0.746679961681366,-0.6252676844596863
1761141620189665500,6.97866552734375,0.8833068013191223,1.0988203287124634,-0.39586272835731506
1761141620199724800,6.988724853515625,1.3009803295135498,1.3060328960418701,-0.17221765220165253
1761141620209784600,6.99878466796875,1.8033541440963745,1.339247703552246,0.031182561069726944
1761141620219843600,7.008843505859375,2.0473878383636475,1.2010914087295532,0.2811175584793091
1761141620229902600,7.018902587890625,1.89131498336792,1.0272420644760132,0.6698662638664246
1761141620239962600,7.028962646484375,1.4448437690734863,1.0153249502182007,1.2765685319900513
1761141620250021600,7.039021728515625,0.9106825590133667,1.1178605556488037,2.0681419372558594
1761141620260080600,7.04908056640625,0.4178595542907715,1.1079000234603882,2.8841352462768555
1761141620270140700,7.059140625,0.027087116613984108,0.9155086874961853,3.519777774810791
1761141620280199400,7.069199462890625,-0.2277315855026245,0.7465587854385376,3.8776602745056152
1761141620290258700,7.0792587890625,-0.21160440146923065,0.7879465222358704,3.933410167694092
1761141620300317400,7.0893173828125,0.08010173588991165,0.7894160151481628,3.7443363666534424
1761141620310377500,7.09937744140625,0.4968825578689575,0.5220367312431335,3.263570547103882
1761141620320436500,7.1094365234375,0.752683699131012,0.34692034125328064,2.5565099716186523
1761141620330495500,7.11949560546875,0.7184547781944275,0.3326488435268402,1.7478716373443604
1761141620340555800,7.1295556640625,0.5028388500213623,0.3389109969139099,1.0117446184158325
1761141620350614500,7.139614501953125,0.28102537989616394,0.26813629269599915,0.48256194591522217
1761141620360673800,7.149673828125,0.13700374960899353,0.10084237903356552,0.2096758335828781
1761141620370732500,7.159732666015625,0.07014304399490356,-0.0708397701382637,0.15303589403629303
1761141620380792600,7.16979248046875,0.08006571978330612,-0.14679205417633057,0.20580323040485382
1761141620390851600,7.1798515625,0.2064037322998047,-0.12351948022842407,0.2858234941959381
1761141620400910600,7.18991064453125,0.4573614001274109,-0.05334226042032242,0.31104257702827454
1761141620410970600,7.199970703125,0.78009033203125,0.0377931110560894,0.2654725909233093
1761141620421029600,7.210029541015625,1.0931103229522705,0.14940033853054047,0.15669046342372894
1761141620431088600,7.220088623046875,1.3177363872528076,0.23044544458389282,0.04089733585715294
1761141620441147600,7.230147705078125,1.4456253051757812,0.27010470628738403,-0.058226585388183594
1761141620451207700,7.240207763671875,1.5017335414886475,0.25965532660484314,-0.11958257853984833
1761141620461266400,7.250266357421875,1.5202395915985107,0.18182897567749023,-0.1505303680896759
1761141620471325700,7.26032568359375,1.5495105981826782,0.08132220804691315,-0.16063058376312256
1761141620481385500,7.270385498046875,1.5852304697036743,-0.004400420002639294,-0.17195914685726166
1761141620491444500,7.280444580078125,1.6138728857040405,-0.058613721281290054,-0.2033347338438034
1761141620501503500,7.29050341796875,1.5890514850616455,-0.0992162823677063,-0.24550695717334747
1761141620511562500,7.3005625,1.4750789403915405,-0.09807384014129639,-0.26807841658592224
1761141620521622800,7.310622802734375,1.28273344039917,-0.07146646082401276,-0.29010090231895447
1761141620531681500,7.320681640625,1.0164215564727783,0.04558238387107849,-0.34662359952926636
1761141620541740500,7.330740478515625,0.725361704826355,0.3080179989337921,-0.4997119605541229
1761141620551800600,7.340800537109375,0.40820080041885376,0.6547552347183228,-0.720316469669342
1761141620561859600,7.350859619140625,0.04929565638303757,0.991197943687439,-1.0708105564117432
1761141620571918600,7.360918701171875,-0.2996067702770233,1.038689136505127,-1.4855693578720093
1761141620581977600,7.3709775390625,-0.5255616307258606,0.6103407144546509,-1.891026258468628
1761141620592037600,7.38103759765625,-0.6006187796592712,-0.19409111142158508,-2.2479519844055176
1761141620602096600,7.3910966796875,-0.7413886785507202,-1.162416696548462,-2.440596342086792
1761141620612155600,7.40115576171875,-0.9877297282218933,-1.8406039476394653,-2.402517795562744
1761141620622215400,7.41121533203125,-1.3532658815383911,-1.7516202926635742,-2.251948356628418
1761141620632274700,7.421274658203125,-1.8202279806137085,-0.744755208492279,-2.162065267562866
1761141620642333400,7.43133349609375,-1.843653917312622,0.40092331171035767,-2.2940196990966797
1761141620652393500,7.4413935546875,-1.1091564893722534,0.9232847094535828,-2.7704107761383057
1761141620662452700,7.45145263671875,-0.049772121012210846,0.8648213744163513,-3.482635974884033
1761141620672511500,7.461511474609375,0.6346660852432251,0.25891056656837463,-4.015468120574951
1761141620682570800,7.47157080078125,0.691323459148407,-0.6445028781890869,-4.115180969238281
1761141620692630500,7.481630615234375,0.29707804322242737,-1.5296998023986816,-3.776597023010254
1761141620702689500,7.491689453125,-0.045924846082925797,-2.219553232192993,-3.204479694366455
1761141620712748500,7.50174853515625,-0.08308451622724533,-2.550147533416748,-2.536086320877075
1761141620722808600,7.51180859375,0.01154132280498743,-2.438793659210205,-1.8583347797393799
1761141620732867600,7.52186767578125,0.13651402294635773,-1.934401512145996,-1.287468433380127
1761141620742926600,7.531926513671875,0.3508433699607849,-1.1935617923736572,-0.9273824691772461
1761141620752985600,7.541985595703125,0.6160413026809692,-0.5395396947860718,-0.7180410027503967
1761141620763045600,7.552045654296875,0.7625388503074646,-0.12304770201444626,-0.5449932813644409
1761141620773104600,7.562104736328125,0.7235985398292542,0.07944794744253159,-0.3656827509403229
1761141620783163600,7.57216357421875,0.6051321029663086,0.3398531675338745,-0.1233164444565773
1761141620793223700,7.5822236328125,0.5644803643226624,0.6601031422615051,0.19425249099731445
1761141620803282400,7.592282470703125,0.675004243850708,0.8483816981315613,0.5106317400932312
1761141620813341700,7.602341796875,0.8363955616950989,0.9263589978218079,0.8866055607795715
1761141620823400400,7.612400390625,0.9945665001869202,0.9562580585479736,1.3015097379684448
1761141620833460000,7.6224599609375,1.1168758869171143,0.9473403096199036,1.6971139907836914
1761141620843519000,7.63251904296875,1.2185689210891724,0.9461548924446106,2.0369107723236084
1761141620853577700,7.64257763671875,1.2866196632385254,0.8776552677154541,2.2388453483581543
1761141620863638000,7.652637939453125,1.327593207359314,0.7587810754776001,2.257368326187134
1761141620873697000,7.662697021484375,1.2863185405731201,0.562025249004364,2.1267099380493164
1761141620883756000,7.672756103515625,1.1645721197128296,0.2906067669391632,1.8877191543579102
1761141620893816000,7.682816162109375,0.9673100709915161,0.05295388400554657,1.574792742729187
1761141620903874800,7.692874755859375,0.7262939810752869,-0.14041317999362946,1.2676620483398438
1761141620913934000,7.70293408203125,0.5161134600639343,-0.2937232553958893,0.9890673756599426
1761141620923992800,7.712992919921875,0.4161759316921234,-0.35395675897598267,0.722981870174408
1761141620934052900,7.723052978515625,0.40942248702049255,-0.30881112813949585,0.46610724925994873
1761141620944112000,7.733112060546875,0.4515126943588257,-0.20457711815834045,0.2272440642118454
1761141620954171000,7.7431708984375,0.490540087223053,-0.07685045152902603,0.020432552322745323
1761141620964231000,7.75323095703125,0.5178686380386353,0.010601903311908245,-0.1124514639377594
1761141620974290000,7.7632900390625,0.5162980556488037,-0.012917136773467064,-0.19413192570209503
1761141620984349000,7.773348876953125,0.4755610525608063,-0.0743061974644661,-0.23321515321731567
1761141620994408000,7.783407958984375,0.3961998224258423,-0.10536018013954163,-0.24544140696525574
1761141621004468000,7.793468017578125,0.30378466844558716,-0.1437738984823227,-0.23730705678462982
1761141621014526700,7.803526611328125,0.19771301746368408,-0.20933744311332703,-0.20588932931423187
1761141621024586000,7.8135859375,0.0789344385266304,-0.3189936578273773,-0.15474118292331696
1761141621034646000,7.82364599609375,-0.042199861258268356,-0.46574926376342773,-0.08109168708324432
1761141621044705000,7.833705078125,-0.14263086020946503,-0.6218611001968384,0.00027933233650401235
1761141621054764000,7.843763916015625,-0.22466926276683807,-0.7314922213554382,0.07472320646047592
1761141621064823800,7.85382373046875,-0.26779064536094666,-0.7692068815231323,0.16534391045570374
1761141621074883000,7.863883056640625,-0.2229330688714981,-0.7995942234992981,0.28082939982414246
1761141621084941800,7.87394189453125,-0.11918723583221436,-0.7935778498649597,0.3879542648792267
1761141621095001000,7.8840009765625,-0.029298942536115646,-0.7031394839286804,0.4688500463962555
1761141621105061000,7.89406103515625,-0.004593063145875931,-0.5468902587890625,0.5332894325256348
1761141621115119900,7.904119873046875,-0.01835610345005989,-0.36003533005714417,0.5917564630508423
1761141621125179100,7.91417919921875,-0.007181479129940271,-0.21134920418262482,0.6191667914390564
1761141621135239000,7.924239013671875,0.07973674684762955,-0.04501887783408165,0.5849341154098511
1761141621145298000,7.9342978515625,0.2389029711484909,0.13899116218090057,0.4613061845302582
1761141621155357000,7.94435693359375,0.4615975022315979,0.39125117659568787,0.20074255764484406
1761141621165417000,7.9544169921875,0.7988889813423157,0.6543120741844177,-0.2342163473367691
1761141621175476000,7.96447607421875,1.2010722160339355,0.6989697813987732,-0.8184239268302917
1761141621185535000,7.974534912109375,1.48617684841156,0.49654796719551086,-1.4360860586166382
1761141621195594000,7.984593994140625,1.4312374591827393,0.09797529876232147,-1.9426029920578003
1761141621205654000,7.994654052734375,0.9530964493751526,-0.3540491461753845,-2.298844575881958
1761141621215713000,8.004713134765625,0.24644532799720764,-0.5671153664588928,-2.4732258319854736
1761141621225771800,8.014771728515624,-0.47237762808799744,-0.2059999704360962,-2.4140310287475586
1761141621235832000,8.02483203125,-1.1826146841049194,1.0316193103790283,-2.1123406887054443
1761141621245890800,8.034890869140625,-1.5737533569335938,2.458967447280884,-1.787610411643982
1761141621255950000,8.0449501953125,-1.209254264831543,3.2311384677886963,-1.6630748510360718
1761141621266010000,8.055010009765626,-0.21568800508975983,3.062147855758667,-1.8860220909118652
1761141621276068900,8.06506884765625,0.7007461786270142,2.083310842514038,-2.3365752696990967
1761141621286128000,8.075128173828125,0.8121960163116455,0.9368303418159485,-2.5466301441192627
1761141621296187000,8.085186767578126,-0.0137921879068017,-0.2847626805305481,-2.1948137283325195
1761141621306247000,8.095246826171875,-1.0440810918807983,-1.563915491104126,-1.3642545938491821
1761141621316306000,8.105305908203125,-1.5749808549880981,-2.7392828464508057,-0.44669392704963684
1761141621326365000,8.115364990234376,-1.491010308265686,-3.6029207706451416,0.313713401556015
1761141621336425000,8.125425048828125,-1.156399130821228,-4.048024654388428,0.8964138031005859
1761141621346484000,8.13548388671875,-0.9175482392311096,-3.899540424346924,1.263079047203064
1761141621356543000,8.14554296875,-0.8229987025260925,-3.141807794570923,1.359140396118164
1761141621366603000,8.15560302734375,-0.751003623008728,-2.3706934452056885,1.2177097797393799
1761141621376662000,8.165662109375,-0.5833971500396729,-1.783914566040039,0.9388470649719238
1761141621386720800,8.175720703125,-0.30837225914001465,-1.4061440229415894,0.5822269320487976
1761141621396780000,8.185780029296875,-0.05799118056893349,-1.1771297454833984,0.21492187678813934
1761141621406839800,8.19583984375,0.10771043598651886,-0.9798015356063843,-0.047133974730968475
1761141621416899000,8.205899169921874,0.2985728681087494,-0.8980305790901184,-0.1968875527381897
1761141621426957800,8.215957763671875,0.6051743626594543,-0.9439408183097839,-0.31446370482444763
1761141621437017900,8.226017822265625,1.0125855207443237,-0.9882898330688477,-0.4600805938243866
1761141621447077000,8.2360771484375,1.378459095954895,-0.9132753014564514,-0.6555052399635315
1761141621457135900,8.246135986328126,1.6428006887435913,-0.7868515253067017,-0.8803669214248657
1761141621467196000,8.25619580078125,1.8470475673675537,-0.7302774786949158,-1.1282093524932861
1761141621477255000,8.2662548828125,1.9511131048202515,-0.6636359095573425,-1.3528591394424438
1761141621487314000,8.27631396484375,1.938459873199463,-0.5173660516738892,-1.4768614768981934
1761141621497373000,8.286373046875,1.8513479232788086,-0.44345998764038086,-1.4230629205703735
1761141621507433000,8.296432861328125,1.5913786888122559,-0.5475448966026306,-1.269122838973999
1761141621517492000,8.306491943359376,1.1455698013305664,-0.79269939661026,-1.1013460159301758
1761141621527551000,8.316551025390625,0.7326645851135254,-1.1161452531814575,-0.922234296798706
1761141621537611000,8.326611083984375,0.47484371066093445,-1.2080819606781006,-0.6092929840087891
1761141621547669800,8.336669677734376,0.3725415766239166,-0.9884512424468994,-0.17950861155986786
1761141621557729000,8.34672900390625,0.44559454917907715,-0.6502437591552734,0.3360610902309418
1761141621567788800,8.356788818359375,0.5464034676551819,-0.2967163026332855,0.9431134462356567
1761141621577848000,8.36684814453125,0.5576273798942566,-0.03994229435920715,1.5860801935195923
1761141621587907000,8.376906982421875,0.5141083598136902,0.17451007664203644,2.0643301010131836
1761141621597966000,8.386966064453125,0.46230119466781616,0.46896860003471375,2.0933339595794678
1761141621608026000,8.397026123046874,0.38967201113700867,0.5748100876808167,1.8449040651321411
1761141621618084900,8.4070849609375,0.3061010539531708,0.4201231002807617,1.5200947523117065
1761141621628144000,8.41714404296875,0.2380298525094986,0.191130131483078,1.2139532566070557
1761141621638204000,8.427203857421874,0.2511814832687378,0.06736758351325989,0.9739888906478882
1761141621648263000,8.437262939453126,0.31544730067253113,0.054052576422691345,0.8309835195541382
1761141621658322000,8.447322021484375,0.3485320210456848,0.11961807310581207,0.7878989577293396
1761141621668382000,8.4573818359375,0.32113075256347656,0.21507267653942108,0.817753791809082
1761141621678441000,8.46744091796875,0.23411628603935242,0.3246573507785797,0.8824154138565063
1761141621688500000,8.4775,0.138375386595726,0.4506640136241913,0.9600234031677246
1761141621698559000,8.48755908203125,0.06201572343707085,0.5636059641838074,1.0311279296875
1761141621708618800,8.49761865234375,0.024926146492362022,0.5830105543136597,1.0983091592788696
1761141621718678000,8.507677978515625,0.04270908236503601,0.5773084759712219,1.1666369438171387
1761141621728736800,8.51773681640625,0.08557558804750443,0.6284281611442566,1.2097618579864502
1761141621738797000,8.527797119140626,0.09764543920755386,0.744418203830719,1.2114059925079346
1761141621748856000,8.53785595703125,0.09446243196725845,0.8462657332420349,1.1664390563964844
1761141621758915000,8.5479150390625,0.04567048326134682,0.9554870128631592,1.0742164850234985
1761141621768975000,8.55797509765625,-0.05951052904129028,1.0205628871917725,0.9426457285881042
1761141621779033900,8.568033935546875,-0.20967695116996765,1.0199850797653198,0.7516149878501892
1761141621789093000,8.578093017578125,-0.44712838530540466,0.988071620464325,0.5309475660324097
1761141621799153000,8.58815283203125,-0.8047430515289307,0.8938941359519958,0.31470781564712524
1761141621809212000,8.5982119140625,-1.1774349212646484,0.7839204668998718,0.09984531253576279
1761141621819271000,8.60827099609375,-1.5006558895111084,0.6680914759635925,-0.14788012206554413
1761141621829329400,8.618329345703126,-1.6879911422729492,0.586247444152832,-0.41221004724502563
1761141621839389400,8.628389404296875,-1.7191755771636963,0.5791982412338257,-0.6943160891532898
1761141621849448400,8.638448486328125,-1.6903756856918335,0.6075186133384705,-1.0110406875610352
1761141621859507500,8.648507568359374,-1.7354720830917358,0.5761683583259583,-1.349293828010559
1761141621869567500,8.6585673828125,-1.9192895889282227,0.4670482575893402,-1.693357229232788
1761141621879626500,8.66862646484375,-2.235811710357666,0.41041913628578186,-1.99429452419281
1761141621889685500,8.678685546875,-2.4642887115478516,0.7767484188079834,-2.2458722591400146
1761141621899745500,8.68874560546875,-2.3205008506774902,1.7507734298706055,-2.403123617172241
1761141621909804300,8.69880419921875,-1.6626139879226685,2.977832317352295,-2.344026565551758
1761141621919863600,8.708863525390624,-0.6692187786102295,3.9303972721099854,-2.169464588165283
1761141621929923600,8.718923583984376,0.2425844520330429,3.829418182373047,-2.006852865219116
1761141621939982300,8.728982421875,0.5094152688980103,2.761411666870117,-1.7857922315597534
1761141621950041600,8.73904150390625,-0.10147792100906372,1.3767319917678833,-1.575438141822815
1761141621960100400,8.749100341796876,-1.5116198062896729,-1.3043036460876465,-1.0328168869018555
1761141621970160400,8.759160400390625,-2.8113229274749756,-4.635674476623535,-0.2131689190864563
1761141621980219400,8.769219482421875,-3.0859663486480713,-7.208176612854004,0.5212458968162537
1761141621990278400,8.7792783203125,-2.261807918548584,-7.733269214630127,1.0815261602401733
1761141622000338400,8.78933837890625,-1.086599588394165,-6.3738179206848145,1.7483526468276978
1761141622010397400,8.7993974609375,-0.3545435070991516,-4.552631855010986,2.417764663696289
1761141622020456400,8.80945654296875,-0.14090782403945923,-3.0804028511047363,2.780151605606079
1761141622030516500,8.8195166015625,-0.2655791640281677,-2.26720929145813,2.7762176990509033
1761141622040575500,8.829575439453125,-0.42119094729423523,-1.8715029954910278,2.466282367706299
1761141622050634500,8.839634521484374,-0.3304687738418579,-1.4737327098846436,1.8731058835983276
1761141622060693500,8.849693603515625,0.1008157953619957,-0.921931266784668,1.0804253816604614
1761141622070753500,8.85975341796875,0.8719154596328735,-0.27932703495025635,0.18495315313339233
1761141622080812500,8.8698125,1.823683738708496,0.33442336320877075,-0.6326515674591064
1761141622090871600,8.87987158203125,2.5366134643554688,0.8131894469261169,-1.2519010305404663
1761141622100931300,8.889931396484375,2.762962818145752,0.9819936752319336,-1.5632115602493286
1761141622110990600,8.899990478515624,2.547644853591919,0.7879491448402405,-1.5500760078430176
1761141622121049300,8.91004931640625,2.0091028213500977,0.32466161251068115,-1.331723928451538
1761141622131109400,8.920109375,1.3465445041656494,0.08045455813407898,-1.0284711122512817
1761141622141168400,8.93016845703125,0.7053192257881165,-0.07182332128286362,-0.6489985585212708
1761141622151227400,8.940227294921876,0.3243945240974426,-0.1690625250339508,-0.10489450395107269
1761141622161287400,8.950287353515625,0.2885361313819885,-0.08994027972221375,0.5734200477600098
1761141622171346400,8.960346435546874,0.42175090312957764,0.029702764004468918,1.200364351272583
1761141622181405400,8.970405517578126,0.5422550439834595,0.13263967633247375,1.642799735069275
1761141622191464400,8.98046435546875,0.5464239716529846,0.15253561735153198,1.800829529762268
1761141622201524500,8.9905244140625,0.4108492434024811,0.25199761986732483,1.6857225894927979
1761141622211583500,9.00058349609375,0.17065687477588654,0.3860150873661041,1.409036636352539
1761141622221642500,9.010642578125,-0.07465843111276627,0.4979661703109741,1.0730277299880981
1761141622231702500,9.02070263671875,-0.2596527636051178,0.5695871114730835,0.7363777756690979
1761141622241761500,9.030761474609376,-0.38600170612335205,0.5776941180229187,0.4503006339073181
1761141622251820500,9.040820556640625,-0.4707610607147217,0.5472033023834229,0.2402142435312271
1761141622261880300,9.05088037109375,-0.5404911041259766,0.4686940312385559,0.10997273772954941
1761141622271939600,9.060939697265624,-0.6272739768028259,0.36524221301078796,0.06566253304481506
1761141622281998300,9.070998291015625,-0.7342775464057922,0.3040662109851837,0.1287708729505539
1761141622292058400,9.081058349609375,-0.8454688191413879,0.20458967983722687,0.28196707367897034
1761141622302117400,9.091117431640624,-0.9756713509559631,0.006959500722587109,0.5133681297302246
1761141622312176400,9.10117626953125,-1.1310737133026123,-0.2409757375717163,0.7557392120361328
1761141622322236400,9.111236328125,-1.2799263000488281,-0.47300904989242554,0.9734014272689819
1761141622332295400,9.12129541015625,-1.4130817651748657,-0.635565996170044,1.1383376121520996
1761141622342354400,9.1313544921875,-1.4918802976608276,-0.7273045778274536,1.2479722499847412
1761141622352413400,9.141413330078125,-1.5297174453735352,-0.7921139597892761,1.3056988716125488
1761141622362473500,9.151473388671874,-1.5565423965454102,-0.7975985407829285,1.300972580909729
1761141622372532500,9.161532470703126,-1.5934993028640747,-0.6891157627105713,1.2523030042648315
1761141622382591500,9.171591552734375,-1.6290887594223022,-0.5152488946914673,1.1530991792678833
1761141622392651500,9.181651611328125,-1.6779780387878418,-0.34145739674568176,0.9940900206565857
1761141622402710500,9.19171044921875,-1.7223291397094727,-0.20398549735546112,0.7526532411575317
1761141622412769500,9.20176953125,-1.7599936723709106,-0.04007618501782417,0.4331541061401367
1761141622422829300,9.211829345703125,-1.8169199228286743,0.04739128053188324,0.06066388264298439
1761141622432888600,9.221888671875,-1.8819031715393066,-0.2175341248512268,-0.3254409432411194
1761141622442947300,9.231947265625,-2.0210423469543457,-0.80190110206604,-0.7392858266830444
1761141622453007400,9.24200732421875,-2.2687013149261475,-1.389868140220642,-1.1757597923278809
1761141622463066400,9.25206640625,-2.5464582443237305,-1.8305623531341553,-1.553354263305664
1761141622473125400,9.26212548828125,-2.7225921154022217,-1.978947639465332,-1.7675718069076538
1761141622483185400,9.272185302734375,-2.8206787109375,-1.7341104745864868,-1.747861385345459
1761141622493244400,9.282244384765624,-2.8638157844543457,-1.2145144939422607,-1.5074876546859741
1761141622503303400,9.292303466796875,-2.5570435523986816,-0.5741925239562988,-1.3597038984298706
1761141622513362400,9.302362548828125,-1.8014194965362549,-0.34562456607818604,-1.4333112239837646
1761141622523422500,9.31242236328125,-0.6124557852745056,-0.08170711249113083,-1.9192975759506226
1761141622533481500,9.3224814453125,0.38616546988487244,-0.11415985971689224,-2.505690097808838
1761141622543540500,9.33254052734375,0.4586685299873352,-0.321045458316803,-2.3985750675201416
1761141622553600500,9.3426005859375,-0.051411233842372894,-0.5423920154571533,-1.8699616193771362
1761141622563659500,9.352659423828126,-0.41126346588134766,-0.4273502826690674,-1.487462043762207
1761141622573718500,9.362718505859375,-0.3332725465297699,-0.08876290172338486,-1.3930635452270508
1761141622583778300,9.3727783203125,-0.12364430725574493,0.10551157593727112,-1.3509341478347778
1761141622593837600,9.382837646484376,0.053963497281074524,0.29387083649635315,-1.1779693365097046
1761141622603896300,9.392896240234375,0.1969093531370163,0.5222657322883606,-0.9292920231819153
1761141622613956400,9.402956298828125,0.2617133855819702,0.736529529094696,-0.6339700818061829
1761141622624015600,9.413015625,0.1658691018819809,0.9301835298538208,-0.30407965183258057
1761141622634074400,9.423074462890625,-0.024346647784113884,1.1322431564331055,0.1173727810382843
1761141622644134400,9.433134521484375,-0.24809779226779938,1.2578336000442505,0.6291117072105408
1761141622654193400,9.443193359375,-0.4567711055278778,1.2965822219848633,1.0863139629364014
1761141622664252400,9.45325244140625,-0.5904468894004822,1.4453058242797852,1.2481913566589355
1761141622674311400,9.4633115234375,-0.539638340473175,1.4062516689300537,1.0528104305267334
1761141622684371500,9.473371337890624,-0.3253704607486725,1.1232454776763916,0.6966982483863831
1761141622694430500,9.483430419921875,-0.18791484832763672,0.8060968518257141,0.35884591937065125
1761141622704489500,9.493489501953125,-0.19236905872821808,0.41773471236228943,0.1786995381116867
1761141622714549500,9.503549560546874,-0.2597217261791229,-0.09477970749139786,0.19621515274047852
1761141622724608500,9.5136083984375,-0.28870588541030884,-0.40927645564079285,0.33178040385246277
1761141622734667500,9.52366748046875,-0.28598442673683167,-0.5693287253379822,0.5408105850219727
1761141622744727300,9.533727294921874,-0.24708908796310425,-0.6369624733924866,0.8012318015098572
1761141622754786600,9.54378662109375,-0.1676965355873108,-0.6707062721252441,1.0665137767791748
1761141622764845300,9.55384521484375,-0.10376150906085968,-0.5392438173294067,1.2890815734863281
1761141622774905300,9.5639052734375,-0.10926972329616547,-0.3116399645805359,1.4428104162216187
1761141622784964600,9.573964599609376,-0.17874351143836975,-0.10779830813407898,1.5203375816345215
1761141622795023400,9.5840234375,-0.2563624083995819,0.06196755915880203,1.5130994319915771
1761141622805083400,9.59408349609375,-0.30255430936813354,0.13818423449993134,1.4505635499954224
1761141622815142400,9.604142333984376,-0.2936183214187622,0.1186017394065857,1.3390052318572998
1761141622825201400,9.614201416015625,-0.23023690283298492,0.05001063272356987,1.2095953226089478
1761141622835261700,9.62426171875,-0.16391487419605255,-0.007592744193971157,1.0796663761138916
1761141622845321700,9.63432177734375,-0.08689195662736893,-0.06676019728183746,0.9741522073745728
1761141622855380500,9.64438037109375,-0.016289161518216133,-0.062138546258211136,0.9127247929573059
1761141622865439700,9.654439697265625,0.03434045985341072,-0.07786531001329422,0.8982270359992981
1761141622875499500,9.66449951171875,0.028359265998005867,-0.14035718142986298,0.8703306913375854
1761141622885558500,9.67455859375,0.022486621513962746,-0.111009880900383,0.758860170841217
1761141622895617500,9.684617431640625,-0.027891330420970917,-0.16442011296749115,0.5771636366844177
1761141622905677600,9.694677490234374,-0.07520812004804611,-0.22598792612552643,0.4559567868709564
1761141622915736600,9.704736572265626,-0.05514546111226082,-0.4283362329006195,0.468059778213501
1761141622925795600,9.714795654296875,0.08295730501413345,-0.6529356241226196,0.5723863244056702
1761141622935855600,9.724855712890625,0.4076019525527954,-0.859133243560791,0.7886552810668945
1761141622945914600,9.73491455078125,0.8522890210151672,-0.9240402579307556,1.197738528251648
1761141622955973600,9.7449736328125,1.293519377708435,-0.8148123025894165,1.7831391096115112
1761141622966033700,9.75503369140625,1.6622775793075562,-0.5986507534980774,2.4976024627685547
1761141622976092700,9.7650927734375,1.8516287803649902,-0.5144343972206116,3.2510015964508057
1761141622986151700,9.775151611328125,1.7240434885025024,-0.671382486820221,3.7701542377471924
1761141622996211500,9.78521142578125,1.1686809062957764,-1.271960973739624,3.661245107650757
1761141623006270700,9.795270751953124,0.43669822812080383,-1.8381773233413696,2.9380009174346924
1761141623016329500,9.80532958984375,-0.23212723433971405,-2.1711394786834717,1.8677397966384888
1761141623026389500,9.815389404296875,-0.6465909481048584,-2.354250192642212,0.6983588933944702
1761141623036448500,9.825448486328124,-0.8507299423217773,-2.5510823726654053,-0.2590155005455017
1761141623046507500,9.835507568359375,-0.8838618993759155,-2.7229061126708984,-0.8069742321968079
1761141623056566500,9.84556640625,-0.8055660128593445,-2.7179465293884277,-0.8944105505943298
1761141623066626600,9.85562646484375,-0.7374847531318665,-2.5994880199432373,-0.7224321365356445
1761141623076685600,9.865685546875,-0.6275515556335449,-2.1969571113586426,-0.5753737092018127
1761141623086744600,9.87574462890625,-0.41809242963790894,-1.5202372074127197,-0.4921213388442993
1761141623096804600,9.8858046875,-0.11176685988903046,-0.8767266273498535,-0.39959192276000977
1761141623106863600,9.895863525390626,0.26476091146469116,-0.3607357144355774,-0.3691369295120239
1761141623116922600,9.905922607421875,0.6208351254463196,0.24202634394168854,-0.4283944070339203
1761141623126982700,9.915982666015625,0.7924046516418457,0.5902890563011169,-0.5842506289482117
1761141623137041700,9.926041748046876,0.7610917687416077,0.5374546051025391,-0.7783812284469604
1761141623147100700,9.9361005859375,0.611142635345459,0.026910770684480667,-0.9721075296401978
1761141623157160400,9.946160400390625,0.3886469900608063,-0.6801015138626099,-1.1944903135299683
1761141623167219700,9.9562197265625,0.23747293651103973,-1.279749870300293,-1.403207540512085
1761141623177278500,9.966278564453125,0.23958775401115417,-1.5594006776809692,-1.464409351348877
1761141623187338500,9.97633837890625,0.2822428047657013,-1.5435630083084106,-1.3930848836898804
1761141623197397500,9.9863974609375,0.273259699344635,-1.1711987257003784,-1.2161865234375
1761141623207456500,9.99645654296875,0.17847289144992828,-0.5458296537399292,-1.0007739067077637
1761141623217516500,10.0065166015625,0.009568017907440662,0.15572980046272278,-0.8680576682090759
1761141623227575600,10.016575439453124,-0.17320489883422852,0.8112995028495789,-0.9326029419898987
1761141623237634600,10.026634521484375,-0.31845077872276306,1.4082903861999512,-1.170364260673523
1761141623247694600,10.036694580078125,-0.3471556305885315,1.7604117393493652,-1.4868446588516235
1761141623257753600,10.046753662109374,-0.27561166882514954,1.784323811531067,-1.7762998342514038
1761141623267812600,10.0568125,-0.1320231407880783,1.6554358005523682,-1.9116992950439453
1761141623277871600,10.06687158203125,0.0027453370857983828,1.5116562843322754,-1.7485170364379883
1761141623287931600,10.076931640625,0.04619671031832695,1.2977867126464844,-1.304665207862854
1761141623297990700,10.08699072265625,-0.005176997277885675,1.044675350189209,-0.7125147581100464
1761141623308049700,10.097049560546875,-0.07600633800029755,0.8216863870620728,-0.13821785151958466
1761141623318109400,10.107109375,-0.07880052924156189,0.6844882965087891,0.2450171411037445
1761141623328168700,10.117168701171876,-0.051453255116939545,0.6690152883529663,0.36096155643463135
1761141623338227500,10.1272275390625,-0.015357834286987782,0.7280415892601013,0.27337339520454407
1761141623348287500,10.13728759765625,0.051949385553598404,0.7647643089294434,0.10615124553442001
1761141623358346800,10.1473466796875,0.16587702929973602,0.7602862119674683,-0.0483243502676487
1761141623368405500,10.157405517578125,0.3040013909339905,0.6933720707893372,-0.17226843535900116
1761141623378465500,10.167465576171875,0.41170868277549744,0.6213173270225525,-0.281157910823822
1761141623388524500,10.177524658203126,0.4554980993270874,0.5591763257980347,-0.3724845349788666
1761141623398583600,10.18758349609375,0.4635632038116455,0.4539601504802704,-0.4293217062950134
1761141623408643600,10.1976435546875,0.427603542804718,0.3021915555000305,-0.4244542419910431
1761141623418702600,10.20770263671875,0.31568604707717896,0.14339976012706757,-0.3613074719905853
1761141623428761600,10.21776171875,0.14319846034049988,0.04166994243860245,-0.2389460653066635
1761141623438821600,10.227821533203125,-0.040916793048381805,0.0025547617115080357,-0.059506796300411224
1761141623448880600,10.237880615234374,-0.20642666518688202,0.0028098924085497856,0.1327023208141327
1761141623458939600,10.247939697265625,-0.3384278416633606,0.006580661982297897,0.26597994565963745
1761141623468999700,10.257999755859375,-0.40683290362358093,0.1404329389333725,0.2821277379989624
1761141623479058400,10.268058349609374,-0.3655989170074463,0.40281689167022705,0.2326243668794632
1761141623489117700,10.27811767578125,-0.2518681287765503,0.6692389845848083,0.20068219304084778
1761141623499177700,10.288177734375,-0.1586282104253769,0.9181146025657654,0.2007461041212082
1761141623509236500,10.298236572265624,-0.12231405824422836,1.2077716588974,0.2020348757505417
1761141623519295700,10.308295654296876,-0.12724809348583221,1.4192500114440918,0.26018980145454407
1761141623529355500,10.31835546875,-0.10440916568040848,1.4027124643325806,0.3712764084339142
1761141623539414500,10.32841455078125,0.026535000652074814,1.313025951385498,0.5124135613441467
1761141623549473500,10.3384736328125,0.19432874023914337,1.2959262132644653,0.6245777010917664
1761141623559532500,10.348532470703125,0.3905821442604065,1.401747226715088,0.6592693328857422
1761141623569592600,10.358592529296875,0.5970847010612488,1.507849097251892,0.6254203915596008
1761141623579651600,10.368651611328126,0.6954376101493835,1.2804001569747925,0.4966147243976593
1761141623589710600,10.378710693359375,0.5729716420173645,0.678355872631073,0.13089536130428314
1761141623599770600,10.3887705078125,0.34941524267196655,0.1748303920030594,-0.5633445978164673
1761141623609829600,10.39882958984375,0.17191827297210693,0.030216149985790253,-1.5090032815933228
1761141623619888600,10.408888671875,0.10326704382896423,0.2282211184501648,-2.404045581817627
1761141623629948700,10.41894873046875,0.14304803311824799,0.6470316648483276,-3.040199041366577
1761141623640007400,10.42900732421875,0.31082797050476074,1.21012544631958,-3.392073392868042
1761141623650066700,10.439066650390625,0.5433258414268494,1.7825586795806885,-3.421685218811035
1761141623660126700,10.449126708984375,0.7540862560272217,1.9952505826950073,-3.080463409423828
1761141623670185500,10.459185546875,0.8365024924278259,1.8114570379257202,-2.4708073139190674
1761141623680244700,10.46924462890625,0.7420175671577454,1.377719759941101,-1.8027182817459106
1761141623690304500,10.479304443359375,0.5420476198196411,0.9145097136497498,-1.2175769805908203
1761141623700363500,10.489363525390624,0.32276666164398193,0.5339322686195374,-0.7753829956054688
1761141623710422500,10.499422607421875,0.16597416996955872,0.2556215226650238,-0.49196451902389526
1761141623720482600,10.509482666015625,0.10158080607652664,0.10427726060152054,-0.3511043190956116
1761141623730541600,10.51954150390625,0.09135851263999939,0.08148060739040375,-0.33271342515945435
1761141623740600600,10.5296005859375,0.10014107823371887,0.16886557638645172,-0.41676464676856995
1761141623750660600,10.53966064453125,0.08855707198381424,0.3416728377342224,-0.5465275645256042
1761141623760719600,10.5497197265625,0.027766162529587746,0.5076391696929932,-0.6424932479858398
1761141623770778600,10.559778564453126,-0.07446974515914917,0.5974400639533997,-0.6464031338691711
1761141623780838400,10.56983837890625,-0.1774888038635254,0.5928117632865906,-0.5301359295845032
1761141623790897700,10.579897705078125,-0.23206549882888794,0.5002139210700989,-0.3059300184249878
1761141623800956400,10.589956298828126,-0.24613192677497864,0.349660187959671,-0.0262460857629776
1761141623811016400,10.600016357421875,-0.24596792459487915,0.2012806385755539,0.25089672207832336
1761141623821075700,10.61007568359375,-0.23880454897880554,0.126070037484169,0.495845228433609
1761141623831134200,10.62013427734375,-0.20502988994121552,0.07716003060340881,0.671734631061554
1761141623841194200,10.6301943359375,-0.13571660220623016,0.06888478994369507,0.7640032768249512
1761141623851253200,10.640253173828125,-0.04086717218160629,0.1373489946126938,0.7632995247840881
1761141623861312300,10.650312255859374,0.07700380682945251,0.2920650839805603,0.678659975528717
1761141623871371300,10.660371337890625,0.2056136280298233,0.5291450619697571,0.5341043472290039
1761141623881431300,10.670431396484375,0.35167574882507324,0.8132598996162415,0.3492785692214966
1761141623891490300,10.680490234375,0.48320695757865906,1.1185622215270996,0.1575092077255249
1761141623901549300,10.69054931640625,0.5860457420349121,1.3502726554870605,0.03917697072029114
1761141623911609000,10.700609130859375,0.5480670928955078,1.279309630393982,0.08692805469036102
1761141623921668400,10.71066845703125,0.2521964907646179,0.7619757056236267,0.277398943901062
1761141623931727000,10.72072705078125,-0.3202057182788849,-0.1507580280303955,0.5691656470298767
1761141623941787100,10.730787109375,-0.9775812029838562,-1.1968588829040527,0.9077010750770569
1761141623951846400,10.740846435546874,-1.559821605682373,-2.061821222305298,1.2567812204360962
1761141623961905200,10.7509052734375,-1.9364882707595825,-2.557990074157715,1.4835474491119385
1761141623971965400,10.76096533203125,-1.9097954034805298,-2.3279566764831543,1.3971892595291138
1761141623982024200,10.771024169921875,-1.4032312631607056,-1.4260611534118652,0.8947479724884033
1761141623992083200,10.781083251953126,-0.6199280619621277,-0.232236847281456,0.15370599925518036
1761141624002143200,10.791143310546875,0.2664521038532257,0.819534420967102,-0.5999326109886169
1761141624012202200,10.8012021484375,0.9592738151550293,1.1580429077148438,-1.2586548328399658
1761141624022261200,10.81126123046875,1.1683108806610107,0.8316141963005066,-1.8242671489715576
1761141624032321300,10.8213212890625,0.9804054498672485,0.06609012186527252,-2.2350594997406006
1761141624042380300,10.83138037109375,0.5648939609527588,-0.8789799809455872,-2.414090156555176
1761141624052439300,10.841439208984376,0.0796283632516861,-1.6325552463531494,-2.33808970451355
1761141624062499300,10.851499267578125,-0.2923731505870819,-1.9125142097473145,-2.0860788822174072
1761141624072558000,10.86155810546875,-0.5165160298347473,-1.8042675256729126,-1.6501284837722778
1761141624082617300,10.871617431640624,-0.6188879609107971,-1.4492827653884888,-1.0202240943908691
1761141624092677400,10.881677490234376,-0.6446520686149597,-0.9464522004127502,-0.25174272060394287
1761141624102736100,10.891736083984375,-0.631631076335907,-0.42348429560661316,0.5661460161209106
1761141624112795400,10.90179541015625,-0.6284708976745605,0.016299134120345116,1.3627723455429077
1761141624122855200,10.911855224609376,-0.6421635150909424,0.2859615087509155,2.0444271564483643
1761141624132914400,10.92191455078125,-0.6620201468467712,0.4098455011844635,2.5054032802581787
1761141624142973200,10.93197314453125,-0.6813626885414124,0.4780213534832001,2.7191321849823
1761141624153033200,10.942033203125,-0.691195011138916,0.5294615030288696,2.736201286315918
1761141624163092200,10.95209228515625,-0.6470682621002197,0.5173843502998352,2.6098105907440186
1761141624173151200,10.962151123046874,-0.5311744213104248,0.4809482991695404,2.421194314956665
1761141624183211300,10.972211181640626,-0.38003793358802795,0.4121335446834564,2.2213544845581055
1761141624193270300,10.982270263671875,-0.2218654453754425,0.2953732907772064,2.0097272396087646
1761141624203329300,10.992329345703125,-0.06418687105178833,0.18158015608787537,1.7784160375595093
1761141624213389000,11.00238916015625,0.09392333030700684,0.10237829387187958,1.5528796911239624
1761141624223448300,11.0124482421875,0.23706558346748352,0.05340862274169922,1.3412281274795532
1761141624233507000,11.022507080078125,0.3465299904346466,0.029999228194355965,1.160111904144287
1761141624243567000,11.032567138671874,0.41329464316368103,0.03315906971693039,1.0270297527313232
1761141624253626400,11.04262646484375,0.42273759841918945,0.03345368802547455,0.9218031167984009
1761141624263685000,11.05268505859375,0.37214258313179016,-0.022695070132613182,0.7977480292320251
1761141624273744400,11.062744384765624,0.2440580129623413,-0.08268536627292633,0.6218056678771973
1761141624283804200,11.07280419921875,0.04749756306409836,-0.14708831906318665,0.3933658301830292
1761141624293863400,11.082863525390625,-0.18420690298080444,-0.2318480759859085,0.14300011098384857
1761141624303923200,11.092923095703124,-0.42124608159065247,-0.303707093000412,-0.07206745445728302
1761141624313982200,11.102982177734376,-0.6020315289497375,-0.4049530327320099,-0.19930599629878998
1761141624324041500,11.11304150390625,-0.7182888984680176,-0.5846519470214844,-0.2139938622713089
1761141624334100200,11.123100341796874,-0.8801212906837463,-0.8778142929077148,-0.10239085555076599
1761141624344160300,11.13316015625,-1.235498070716858,-1.3403807878494263,0.0748736709356308
1761141624354219300,11.14321923828125,-1.6686869859695435,-1.629569411277771,0.1425052285194397
1761141624364278300,11.1532783203125,-1.8846288919448853,-1.1029943227767944,-0.07611953467130661
1761141624374338000,11.163338134765626,-1.632277488708496,0.07040763646364212,-0.6306033134460449
1761141624384397300,11.173397216796875,-0.9173268675804138,0.9296821355819702,-1.3599179983139038
1761141624394456000,11.1834560546875,-0.0874658152461052,1.0101251602172852,-2.034874439239502
1761141624404516000,11.19351611328125,0.6414267420768738,0.6168578267097473,-2.538011312484741
1761141624414575400,11.203575439453125,1.0586233139038086,-0.053163036704063416,-2.880934238433838
1761141624424634000,11.213634033203125,1.1422460079193115,-0.7132895588874817,-3.098534345626831
1761141624434694400,11.2236943359375,1.0428681373596191,-1.1974068880081177,-3.2007105350494385
1761141624444753200,11.233753173828125,0.8922581076622009,-1.47011399269104,-3.143733024597168
1761141624454812400,11.2438125,0.7861623764038086,-1.5080281496047974,-2.851861000061035
1761141624464872400,11.25387255859375,0.7681559324264526,-1.3402646780014038,-2.3271899223327637
1761141624474931200,11.26393115234375,0.7934147715568542,-1.0462931394577026,-1.5884770154953003
1761141624484990500,11.273990478515625,0.8174527287483215,-0.700270414352417,-0.7028813362121582
1761141624495050200,11.28405029296875,0.8206232786178589,-0.34036579728126526,0.21826328337192535
1761141624505109200,11.294109130859376,0.8168346285820007,-0.04991743713617325,1.062359094619751
1761141624515168300,11.304168212890625,0.7879849076271057,0.13703081011772156,1.7140156030654907
1761141624525228300,11.314228271484374,0.7198527455329895,0.28360214829444885,2.121900796890259
1761141624535287000,11.324287109375,0.5861435532569885,0.4609203636646271,2.302988052368164
1761141624545346300,11.33434619140625,0.4033369719982147,0.6182790398597717,2.2992119789123535
1761141624555406300,11.34440625,0.20714527368545532,0.6793068051338196,2.133944034576416
1761141624565465000,11.354465087890626,0.0415605753660202,0.6548230051994324,1.8379682302474976
1761141624575524400,11.3645244140625,-0.0840519592165947,0.6344115734100342,1.4703096151351929
1761141624585584000,11.374584228515625,-0.18694745004177094,0.6069056391716003,1.0844801664352417
1761141624595643400,11.384643310546876,-0.2627556622028351,0.5545648336410522,0.7309256792068481
1761141624605702100,11.3947021484375,-0.29490694403648376,0.3955227732658386,0.41959813237190247
1761141624615762200,11.40476220703125,-0.2928789556026459,0.11651455610990524,0.10543210804462433
1761141624625821400,11.414821533203124,-0.2655471861362457,-0.14958156645298004,-0.22891338169574738
1761141624635880200,11.424880126953125,-0.27414554357528687,-0.34246382117271423,-0.5516483187675476
1761141624645940200,11.434940185546875,-0.29074397683143616,-0.43273699283599854,-0.8309486508369446
1761141624655999200,11.444999267578124,-0.2577770948410034,-0.514938235282898,-1.0669159889221191
1761141624666058200,11.455058349609375,-0.20064669847488403,-0.661823034286499,-1.2100920677185059
1761141624676118000,11.465117919921875,-0.2262752205133438,-0.8793530464172363,-1.2389072179794312
1761141624686177300,11.47517724609375,-0.3415094017982483,-1.1282957792282104,-1.1176213026046753
1761141624696236000,11.485236083984375,-0.5133683681488037,-1.3000046014785767,-0.8977004289627075
1761141624706296300,11.49529638671875,-0.6862501502037048,-1.2562683820724487,-0.6904313564300537
1761141624716355300,11.505355224609374,-0.7406574487686157,-0.9252520203590393,-0.52938312292099
1761141624726414000,11.5154140625,-0.6390288472175598,-0.43660828471183777,-0.42853131890296936
1761141624736474400,11.525474365234375,-0.3695513606071472,-0.08311567455530167,-0.3604047894477844
1761141624746533000,11.535533203125,-0.024221116676926613,0.07747320085763931,-0.3209569752216339
1761141624756592400,11.54559228515625,0.31950315833091736,0.13440972566604614,-0.3414277136325836
1761141624766652400,11.55565234375,0.5825726389884949,0.13925668597221375,-0.4224277436733246
1761141624776711200,11.565711181640625,0.6766433119773865,0.07367599755525589,-0.5160566568374634
1761141624786770400,11.5757705078125,0.6079742312431335,-0.08667559176683426,-0.6184589266777039
1761141624796830200,11.585830322265625,0.40563148260116577,-0.2637172043323517,-0.7739229798316956
1761141624806889200,11.59588916015625,0.1500534862279892,-0.3239091634750366,-0.9456701874732971
1761141624816948200,11.6059482421875,-0.06042361259460449,-0.2953861355781555,-1.0588403940200806
1761141624827008300,11.61600830078125,-0.19246339797973633,-0.20663388073444366,-1.0878413915634155
1761141624837067300,11.6260673828125,-0.23917347192764282,-0.07889443635940552,-1.0149089097976685
1761141624847126300,11.636126220703124,-0.18804264068603516,0.11924555152654648,-0.8478655219078064
1761141624857186300,11.646186279296876,-0.06811799854040146,0.31119194626808167,-0.5772351622581482
1761141624867245300,11.656245361328125,0.08266325294971466,0.44150015711784363,-0.2548365592956543
1761141624877304300,11.66630419921875,0.24741749465465546,0.5099032521247864,0.03446761891245842
1761141624887364400,11.6763642578125,0.39453795552253723,0.5647854208946228,0.2218494862318039
1761141624897423400,11.68642333984375,0.47114628553390503,0.5927309989929199,0.28286099433898926
1761141624907482400,11.696482421875,0.45380616188049316,0.5649270415306091,0.2425287514925003
1761141624917542100,11.706542236328126,0.3484562039375305,0.4997551143169403,0.14822691679000854
1761141624927601400,11.716601318359375,0.1952783614397049,0.39475518465042114,0.08342929184436798
1761141624937660200,11.72666015625,0.024299299344420433,0.24046078324317932,0.03813789784908295
1761141624947720200,11.73672021484375,-0.11582105606794357,0.06324712932109833,0.018485629931092262
1761141624957779500,11.746779541015625,-0.19157102704048157,-0.0846189633011818,0.022760309278964996
1761141624967838200,11.756838134765625,-0.22120188176631927,-0.15560364723205566,0.023055920377373695
1761141624977898200,11.766898193359374,-0.1960344761610031,-0.11667543649673462,0.019751204177737236
1761141624987957200,11.776957275390625,-0.14053313434123993,0.004694671370089054,0.03644842281937599
1761141624998016300,11.787016357421875,-0.07805093377828598,0.1508791595697403,0.06182529032230377
1761141625008076500,11.79707666015625,-0.023369310423731804,0.2970891296863556,0.0710558071732521
1761141625018135300,11.80713525390625,0.002661912003532052,0.4282916188240051,0.06738000363111496
1761141625028194300,11.8171943359375,-0.007897255010902882,0.47882696986198425,0.06640741974115372
1761141625038254300,11.82725439453125,-0.012652642093598843,0.4008535146713257,0.07483074814081192
1761141625048313300,11.837313232421875,-0.007129512261599302,0.2995609641075134,0.10062053799629211
1761141625058372400,11.847372314453125,-0.011122305877506733,0.19431640207767487,0.16129446029663086
1761141625068431400,11.857431396484374,-0.040222931653261185,0.10852772742509842,0.2343633472919464
1761141625078491400,11.867491455078126,-0.09516222029924393,0.07494306564331055,0.2830001413822174
1761141625088550400,11.87755029296875,-0.15981844067573547,0.09579161554574966,0.29517266154289246
1761141625098609400,11.887609375,-0.2208973616361618,0.12112022191286087,0.24321356415748596
1761141625108669200,11.897669189453126,-0.26946038007736206,0.16988056898117065,0.155531108379364
1761141625118728400,11.907728515625,-0.27875036001205444,0.21289554238319397,0.07701284438371658
1761141625128788200,11.917788330078125,-0.25512200593948364,0.2241487354040146,0.04488420486450195
1761141625138847200,11.92784716796875,-0.22189278900623322,0.19056186079978943,0.08083520084619522
1761141625148906200,11.93790625,-0.18854255974292755,0.1226922795176506,0.1693488210439682
1761141625158965200,11.94796533203125,-0.1659652292728424,0.03736414015293121,0.29399120807647705
1761141625169025500,11.958025634765624,-0.16930696368217468,-0.02386273257434368,0.427365779876709
1761141625179084300,11.968084228515625,-0.1942644566297531,-0.055202290415763855,0.5515602827072144
1761141625189143300,11.978143310546875,-0.21887685358524323,-0.03831092268228531,0.6377833485603333
1761141625199203300,11.988203369140624,-0.22572287917137146,0.03424404561519623,0.6710993051528931
1761141625209262300,11.998262451171875,-0.20425939559936523,0.1437380462884903,0.6274969577789307
1761141625219321300,12.0083212890625,-0.13991878926753998,0.25065499544143677,0.5275615453720093
1761141625229381400,12.01838134765625,-0.034493833780288696,0.3209190368652344,0.38196149468421936
1761141625239440400,12.0284404296875,0.093315988779068,0.34877336025238037,0.23566903173923492
1761141625249499400,12.03849951171875,0.2602168321609497,0.2845967710018158,0.13699784874916077
1761141625259559400,12.048559326171874,0.46562114357948303,0.1518200784921646,0.10303014516830444
1761141625269618200,12.0586181640625,0.7351878881454468,0.01879037916660309,0.1322716474533081
1761141625279677400,12.068677490234375,1.0626752376556396,-0.11983321607112885,0.22282156348228455
1761141625289737200,12.0787373046875,1.3770275115966797,-0.2521020174026489,0.3279069662094116
1761141625299796200,12.088796142578126,1.6328977346420288,-0.3572060167789459,0.4159064292907715
1761141625309855200,12.098855224609375,1.7839996814727783,-0.4846785068511963,0.49185338616371155
1761141625319915300,12.108915283203125,1.7225804328918457,-0.6432342529296875,0.5323536396026611
1761141625329974500,12.118974609375,1.4598108530044556,-0.7354070544242859,0.5595564842224121
1761141625340033300,12.129033203125,1.0994000434875488,-0.7608889937400818,0.5852034091949463
1761141625350093300,12.13909326171875,0.7546282410621643,-0.7131654024124146,0.6247835755348206
1761141625360152300,12.14915234375,0.49802181124687195,-0.5799445509910583,0.6648787260055542
1761141625370211300,12.15921142578125,0.3370957672595978,-0.45001453161239624,0.6673669219017029
1761141625380271400,12.169271240234375,0.260505735874176,-0.343418151140213,0.6016711592674255
1761141625390330400,12.179330322265624,0.24166204035282135,-0.2613869309425354,0.4827072322368622
1761141625400389400,12.189389404296875,0.23170782625675201,-0.2019714117050171,0.35255831480026245
1761141625410449200,12.19944921875,0.20663230121135712,-0.1373138576745987,0.24322009086608887
1761141625420508400,12.20950830078125,0.18483835458755493,-0.035598427057266235,0.18725386261940002
1761141625430567200,12.219567138671875,0.14298970997333527,0.0857759341597557,0.15089692175388336
1761141625440627500,12.22962744140625,0.07108905166387558,0.2258971631526947,0.09175150841474533
1761141625450686200,12.239686279296874,-0.0054920087568461895,0.3387174606323242,-0.02662280574440956
1761141625460745200,12.2497451171875,-0.039404720067977905,0.36564576625823975,-0.19609451293945312
1761141625470805500,12.259805419921875,-0.05103154852986336,0.3375430107116699,-0.4015456736087799
1761141625480864300,12.2698642578125,-0.07404191792011261,0.2788313627243042,-0.605621337890625
1761141625490923500,12.279923583984376,-0.09142783284187317,0.2139785885810852,-0.7446338534355164
1761141625500983300,12.2899833984375,-0.09609173983335495,0.16061356663703918,-0.8051728010177612
1761141625511042300,12.300042236328125,-0.07092113792896271,0.1454322189092636,-0.7674145102500916
1761141625521101300,12.310101318359376,-0.049771748483181,0.09158715605735779,-0.6620016694068909
1761141625531161300,12.320161376953125,-0.0720863789319992,0.04598931223154068,-0.5292510986328125
1761141625541220400,12.330220458984375,-0.137269526720047,0.03841867297887802,-0.39512506127357483
1761141625551279400,12.340279296875,-0.2213955968618393,0.06424681097269058,-0.28990063071250916
1761141625561339400,12.35033935546875,-0.27318844199180603,0.1007789820432663,-0.23532505333423615
1761141625571398100,12.360398193359375,-0.27275407314300537,0.11191845685243607,-0.21888455748558044
1761141625581457400,12.37045751953125,-0.23367320001125336,0.13159430027008057,-0.2127440869808197
1761141625591517400,12.380517333984375,-0.15761518478393555,0.14728032052516937,-0.1897181272506714
1761141625601576400,12.390576416015625,-0.0923503115773201,0.17182819545269012,-0.16067564487457275
1761141625611635500,12.400635498046874,-0.06051994860172272,0.24079342186450958,-0.14108116924762726
1761141625621695200,12.4106953125,-0.0456165075302124,0.34654316306114197,-0.11766765266656876
1761141625631754500,12.42075439453125,-0.010087008588016033,0.429739773273468,-0.08413393050432205
1761141625641814300,12.430814208984375,0.06620348244905472,0.46061354875564575,-0.01927168294787407
1761141625651873300,12.440873291015626,0.16370022296905518,0.439231276512146,0.02452373504638672
1761141625661932300,12.450932373046875,0.2457401603460312,0.427105188369751,0.0021099201403558254
1761141625671992300,12.460992431640625,0.29683560132980347,0.42282360792160034,-0.10157093405723572
1761141625682051300,12.47105126953125,0.33131757378578186,0.45463913679122925,-0.23541446030139923
1761141625692110300,12.4811103515625,0.3849206268787384,0.45795875787734985,-0.3574780523777008
1761141625702170400,12.49117041015625,0.43241041898727417,0.437518447637558,-0.46624982357025146
1761141625712229400,12.5012294921875,0.4780609905719757,0.42862457036972046,-0.55661541223526
1761141625722288400,12.511288330078125,0.5217740535736084,0.3694224953651428,-0.6077268719673157
1761141625732348400,12.521348388671875,0.5344781279563904,0.24220329523086548,-0.624446451663971
1761141625742407400,12.531407470703124,0.5187130570411682,0.09504687041044235,-0.61557936668396
1761141625752466400,12.541466552734375,0.48158085346221924,-0.031302280724048615,-0.5895520448684692
1761141625762526200,12.551526123046875,0.41746336221694946,-0.09970364719629288,-0.5618148446083069
1761141625772585500,12.56158544921875,0.32858434319496155,-0.10394579917192459,-0.5083297491073608
1761141625782644200,12.571644287109375,0.2314920574426651,-0.08072242885828018,-0.44140443205833435
