time,seconds_elapsed,z,y,x
1761141523783806700,0.071806640625,0.7376713009595871,0.7779284925460815,0.23882636484093964
1761141523793865700,0.08186572265625,0.6867565217584372,0.7728519199341535,0.22439839184209703
1761141523803925800,0.09192578125,0.7544196066647768,0.700455084504187,0.17314780481532216
1761141523813985800,0.10198583984375,0.8635656255602836,0.625112551011145,0.14910488512255252
1761141523824045800,0.1120458984375,0.9356962112694979,0.5459574734926224,0.0948992476824671
1761141523834104800,0.122104736328125,0.9861223301708698,0.5071998728141188,0.022011633060872553
1761141523844164900,0.132164794921875,0.8894289656132459,0.5493652361094952,-0.007275543960928917
1761141523854224600,0.142224609375,0.7032628354012965,0.6746513656839728,0.15081395406275988
1761141523864284000,0.152283935546875,0.36497020722329615,0.7819229690097272,0.45451874152757227
1761141523874344000,0.162343994140625,-0.1684217992067337,0.8902616170451044,0.7145031182747333
1761141523884403700,0.17240380859375,-0.7644955949991941,0.8756031232260167,0.8205622770708054
1761141523894463700,0.182463623046875,-1.2271978621780872,0.8180440837047994,0.8349332591854035
1761141523904523000,0.19252294921875,-1.4227438151538372,0.7355437874116003,0.8351989974495023
1761141523914582800,0.202582763671875,-1.283956106710434,0.48949426638409493,0.8549044724598527
1761141523924642800,0.212642822265625,-0.919554054763913,0.3020556320182979,0.7065070049542933
1761141523934701600,0.22270166015625,-0.5467372256934643,0.21964052979052065,0.5217014225058257
1761141523944761900,0.232761962890625,-0.3892056538134813,0.24308307243734598,0.5715536870419978
1761141523954822000,0.24282177734375,-0.47487552005350586,0.3144087715044617,0.7141216446764767
1761141523964880600,0.252880615234375,-0.7390285607874393,0.487117161989212,0.8854922106862068
1761141523974940700,0.262940673828125,-1.154746373951435,0.6583779840141535,0.98583752188012
1761141523985001000,0.2730009765625,-1.6302695442587136,0.8037313345834612,1.0120888383373619
1761141523995060700,0.283060791015625,-2.1133792241722342,0.8602490483582019,1.0551790613926946
1761141524005119700,0.29311962890625,-2.3970927054226396,0.8917499559067189,0.9763061618164182
1761141524015179800,0.3031796875,-2.2922855925142764,0.854973592173308,0.7635797953285276
1761141524025239800,0.31323974609375,-1.7620885827332735,0.7535578752689063,0.46790918817222116
1761141524035298800,0.323298828125,-0.9002250849157571,0.6023202889665961,0.1469869431205094
1761141524045358800,0.33335888671875,0.17047347103953361,0.4675264724649489,-0.07014759519845247
1761141524055418600,0.343418701171875,1.1652747822284697,0.371481196552515,-0.2892364824555814
1761141524065478000,0.353477783203125,1.6302636990398167,0.2480390874095261,-0.45109702345058317
1761141524075537700,0.36353759765625,1.6632295645743607,0.07983385356292128,-0.5742056628555059
1761141524085597700,0.37359765625,1.511223478117585,-0.07107406239360571,-0.7818423049889505
1761141524095657700,0.38365771484375,1.1615770967543124,-0.1535880949512124,-0.9880800401099026
1761141524105716700,0.393716796875,0.8225748590022325,-0.1390378838121891,-1.005805228023231
1761141524115776800,0.40377685546875,0.506544916036725,-0.07567381127402185,-1.0520948316417633
1761141524125836800,0.4138369140625,0.24458967760801315,-0.1229546178869903,-1.2492143175445496
1761141524135895800,0.423895751953125,-0.03802256440222263,-0.12877557912543416,-1.3487243469581007
1761141524145955800,0.433955810546875,-0.25894319713115693,-0.08167553590685128,-1.4440129592843354
1761141524156015900,0.444015869140625,-0.3037731034606695,-0.08987126345261931,-1.6323441585756837
1761141524166075000,0.454074951171875,-0.25950433814525603,-0.07961144298389554,-1.7789909099563954
1761141524176135000,0.464135009765625,-0.2931424038529396,-0.06913155002370476,-1.9002049677863715
1761141524186195000,0.47419482421875,-0.4569897347509861,-0.04653159568086266,-1.6985728267647324
1761141524196254700,0.484254638671875,-0.6359153923153877,-0.017222645218670368,-2.2221961572438476
1761141524206313700,0.494313720703125,-0.5860621048659086,-0.09155673232153058,-1.9440199979849158
1761141524216373800,0.504373779296875,-0.9381073640644549,0.015413403839617966,-1.5961425259903073
1761141524226433800,0.514433837890625,-1.1281021126538515,0.14003347072079778,-1.737123506694287
1761141524236492800,0.524492919921875,-1.1509580875843763,0.1769435438364744,-1.5397478540733456
1761141524246552800,0.534552734375,-1.060746486261487,0.163143274281919,-1.4052942293114958
1761141524256612900,0.54461279296875,-0.7856605481028557,0.1585892642393708,-1.2471860265873371
1761141524266671900,0.554671875,-0.368008552005887,0.15687062375321983,-1.1749221698872745
1761141524276731600,0.564731689453125,0.09767477681040763,0.14818769721239805,-1.1260507330819964
1761141524286791700,0.574791748046875,0.6780033064603805,-0.009869505976885557,-1.311857528462261
1761141524296852000,0.58485205078125,1.0932423961967228,-0.046872371942549944,-1.4391833471708
1761141524306910700,0.59491064453125,1.3254197514772414,0.034380700768530364,-1.4650352890469134
1761141524316970800,0.604970703125,1.6036200222641228,-0.1340827456228435,-1.6901413907669485
1761141524327030800,0.61503076171875,1.8327046722263096,-0.2672743876248598,-1.9724414980880915
1761141524337089800,0.62508984375,2.1875199806600807,-0.47266091274395583,-2.316752363642305
1761141524347149800,0.63514990234375,2.154458253535628,-0.31477482833787795,-2.4375924735933543
1761141524357209600,0.645209716796875,2.740143341782689,-0.03629047991260886,-1.2902898397766054
1761141524367268900,0.655268798828125,3.1209166828155515,-0.28928470551148056,-0.8984484306320547
1761141524377329000,0.665328857421875,3.318202172935009,-0.5170721552699804,-0.8092429376117884
1761141524387388700,0.675388671875,3.4769033731162544,-0.5259734007366001,-0.7011750693418085
1761141524397448700,0.68544873046875,3.646261576390266,-0.07984218299984931,-0.3667135437592864
1761141524407508000,0.695508056640625,3.6156940041691064,0.02421454993262887,-0.4509092457935214
1761141524417567700,0.705567626953125,3.2662311626791953,0.22268588883578777,-0.6453793862313032
1761141524427627800,0.715627685546875,3.1270845577955244,0.7010403370462358,-0.35889402911476787
1761141524437686800,0.725686767578125,3.1063194176644084,0.9142531718768179,-0.4427157832700759
1761141524447746800,0.735746826171875,3.1160943772256373,1.004286201762408,-0.4981172063659876
1761141524457806800,0.745806884765625,3.118058370774984,1.0700811547093092,-0.5017418996691704
1761141524467867000,0.755866943359375,3.501266830000281,1.0550352690078317,-0.7429264450088143
1761141524477926000,0.76592578125,4.018942796382308,0.8805664447218179,-1.2178059836503117
1761141524487985400,0.7759853515625,4.424045107507705,0.7678837761327624,-1.352119103962928
1761141524498045400,0.78604541015625,4.477354088369012,0.8577363348849117,-1.8090027479909359
1761141524508104400,0.7961044921875,5.066553322216868,1.015256946979463,-1.1244826069824396
1761141524518164500,0.80616455078125,5.658087136492133,0.6201357855118811,-0.9892106515750289
1761141524528224500,0.816224609375,5.915832063749432,0.344876975004375,-0.35570465848892924
1761141524538283300,0.826283203125,5.699242153701186,-0.6031983869753778,-0.8394961831867694
1761141524548343300,0.83634326171875,5.245738507500291,-1.3304033851087091,-0.8488058633238077
1761141524558403600,0.846403564453125,4.2509979865878815,-1.5619298752650617,-1.0844957567699254
1761141524568462300,0.85646240234375,2.6251310612022873,-1.0797058921448885,-2.1434442536987364
1761141524578522400,0.8665224609375,0.9245178146511316,-0.9820695476487278,-2.8092311987951395
1761141524588582400,0.87658251953125,-1.692615818056464,-1.0364503955252469,-2.801525446723401
1761141524598642400,0.886642333984375,-5.169859382912517,-0.8538910576336085,-2.1866711087457835
1761141524608701400,0.896701416015625,-9.253162131002545,-0.44621874988973137,-1.0484036489736288
1761141524618761500,0.906761474609375,-14.013390911710262,-0.1508209683254361,-0.27966374920187514
1761141524628821200,0.9168212890625,-19.77863084745407,-0.051094811943173404,-0.5293364474289118
1761141524638880500,0.926880615234375,-27.153653419744966,0.03520122337117791,-1.8882786754101513
1761141524648940500,0.9369404296875,-33.35194458076953,-0.5534660955570638,-3.005134879167378
1761141524659000300,0.947000244140625,-37.13500766022205,-2.138436946930736,-1.6352882492035627
1761141524669059600,0.9570595703125,-38.208867895078654,-3.022573797485232,0.43646008387617763
1761141524679119400,0.967119384765625,-35.72226501460075,-2.098650441595912,0.555992691425234
1761141524689179400,0.977179443359375,-31.326788998973367,-1.9081728779256342,0.7390992879360914
1761141524699239400,0.987239501953125,-26.680838339352608,-2.591160694800317,1.2366152404733002
1761141524709298400,0.99729833984375,-20.94226663030386,-1.7512170601069925,2.032169698341936
1761141524719358500,1.0073583984375,-15.032745649397372,-1.0719468024507164,1.9363954944558441
1761141524729418500,1.01741845703125,-10.21969187195301,-0.8160209073141217,0.9064313191447406
1761141524739477500,1.0274775390625,-6.604934856373071,-0.3148594378814101,-0.3663868690881878
1761141524749537500,1.03753759765625,-4.076451567021012,-0.8626669231548905,-0.21564908553417772
1761141524759597600,1.04759765625,-1.4256184938073158,-1.7468623720288277,0.6917165553186089
1761141524769656300,1.05765625,1.0986240892350674,-1.673706534925103,0.8757031495343893
1761141524779716600,1.067716552734375,2.205302305588126,-0.7648752419665455,0.8748113883264362
1761141524789776600,1.077776611328125,2.437164019048214,0.7838724956423043,0.12337532751709222
1761141524799836400,1.08783642578125,3.632327743583917,1.94328043166399,0.03582973053306341
1761141524809895400,1.0978955078125,5.379313449731469,3.026537148158252,0.0697157796524465
1761141524819955500,1.10795556640625,6.800299023041129,4.186455371789634,-0.5131690103515982
1761141524830015500,1.118015380859375,7.849612845662236,3.4450811246588824,-1.7580938140086828
1761141524840074500,1.128074462890625,9.318975788649917,2.1165534702941775,-2.3438035983055827
1761141524850134300,1.13813427734375,11.798942592114209,1.3116715043708682,-2.3151265160061416
1761141524860194600,1.148194580078125,13.88025319185257,0.461926606631279,-3.3155034353703257
1761141524870253600,1.158253662109375,15.606791737776994,0.6319137554585933,-3.0531068829149004
1761141524880313300,1.168313232421875,18.615280311286448,2.2720465220838784,-1.3924137049503624
1761141524890373400,1.178373291015625,21.300017407667635,3.721082424096763,-0.909789032074809
1761141524900433700,1.18843359375,21.907253817987442,4.376194684313237,-1.623979796464741
1761141524910492400,1.198492431640625,20.62260563735962,4.6034164630129935,-1.663403605967015
1761141524920552400,1.208552490234375,18.550812223029137,5.492807142442465,-1.0737152734279631
1761141524930612500,1.218612548828125,15.211200182318686,5.894828438687324,-1.2317562561348079
1761141524940671500,1.22867138671875,11.475668084847927,5.236900536528229,-1.2828987066119908
1761141524950731500,1.2387314453125,7.829963557818531,5.144391179656982,-1.234307401922345
1761141524960791300,1.248791259765625,5.158899597480893,5.065089094883203,-1.26713152089864
1761141524970850600,1.2588505859375,3.6117262695819137,3.8642145914852617,-0.7224964551161974
1761141524980910600,1.26891064453125,3.0356986519962548,3.073992142294347,-0.4039298698125407
1761141524990970400,1.278970458984375,3.4879970140606162,2.923609857647121,-0.5767535572400316
1761141525001029400,1.289029296875,4.8029018012642855,2.9252982491254804,-0.47170160272512585
1761141525011089700,1.299089599609375,6.315957170984149,2.786158658504486,0.028833697633258996
1761141525021149400,1.3091494140625,7.955841515806317,2.607610309819877,0.3639097749175504
1761141525031209500,1.31920947265625,9.354901673033833,2.6097175112321973,0.35372144878245887
1761141525041268200,1.329268310546875,10.039073438996075,2.5565491078853606,0.3604097309073433
1761141525051328500,1.33932861328125,10.100865586042403,2.540982997702062,0.3098152331691235
1761141525061388500,1.349388427734375,9.7514080052495,2.507979722766578,0.0439483011893928
1761141525071447300,1.359447265625,9.290808847829698,2.5278993519842623,-0.11958324175775051
1761141525081507300,1.36950732421875,8.72684868465662,2.3020281111106273,-0.23075557884909212
1761141525091567600,1.379567626953125,7.88151429683566,2.0750901177883145,-0.25231084644459184
1761141525101626400,1.38962646484375,7.1273583095431325,2.064375539289415,-0.26805837760940193
1761141525111686400,1.399686279296875,6.6344117107480765,1.9047126544691622,-0.43742191464565694
1761141525121746400,1.409746337890625,6.649854194551706,1.7720587726056576,-0.5839582644544542
1761141525131805400,1.419805419921875,7.068386480614542,1.8721309659466145,-0.5934492194425315
1761141525141865500,1.429865478515625,7.658884522101283,1.81380693340227,-1.0748321486286818
1761141525151925500,1.439925537109375,8.170886534500122,1.44257284347862,-1.3353631994731723
1761141525161985300,1.4499853515625,8.609774795371294,1.3134431902185082,-1.2681347065918147
1761141525172044500,1.46004443359375,8.95320303287208,1.5562432079307733,-1.3732691517584026
1761141525182104300,1.470104248046875,9.184962455001473,1.710980619047582,-1.5630501114666462
1761141525192164400,1.480164306640625,9.182438489481806,1.8285826238602398,-2.076230373864621
1761141525202223600,1.4902236328125,9.124381437310577,1.6648859534792602,-1.8766503430671988
1761141525212283400,1.500283447265625,8.763605759167671,1.6929121706545351,-1.5336923534266649
1761141525222343400,1.510343505859375,7.813738399204611,1.6642869646728038,-1.5372978305727243
1761141525232402700,1.520402587890625,7.1650441893368955,1.5719062026172876,-1.356676182745397
1761141525242462500,1.53046240234375,5.775470237857103,0.49695408087074755,-0.9376564054265618
1761141525252522500,1.5405224609375,3.042811698871851,-1.3185805531069636,0.8119630832906812
1761141525262582500,1.55058251953125,0.5483557668060064,-4.5491818917393685,2.649483119909465
1761141525272641500,1.5606416015625,-3.436370871719718,-7.5946034808486695,3.471759288226068
1761141525282701600,1.57070166015625,-9.84454689219594,-6.049931906637549,1.897749683588743
1761141525292761600,1.58076171875,-16.18700102496147,-3.0530870091706515,-0.8940240383185446
1761141525302820400,1.5908203125,-23.913512976133823,0.9500282496131957,0.3520608220938593
1761141525312880600,1.600880615234375,-34.69620697988272,6.9274395483106375,5.729132849574088
1761141525322940400,1.6109404296875,-41.39005112280845,8.743961147499084,7.452322669592499
1761141525332999400,1.62099951171875,-38.56748844101429,7.451818811723589,7.18976537361741
1761141525343059500,1.6310595703125,-30.73263185045719,6.749746062889694,5.780255134046078
1761141525353119500,1.641119384765625,-22.50658983044624,6.658688658392429,3.797228967449069
1761141525363178500,1.651178466796875,-17.1116889354825,5.369300005239248,2.286319962108135
1761141525373238500,1.661238525390625,-14.72580619086027,3.29263109382689,1.2965005309849977
1761141525383298300,1.67129833984375,-13.687765457403659,1.4673362594656645,0.8518317870162427
1761141525393358600,1.681358642578125,-12.625165452229975,-0.13052587512517347,-0.040465865901112556
1761141525403417300,1.691417236328125,-11.029163503754138,-1.6616265132918953,-1.7498321816198528
1761141525413477400,1.701477294921875,-8.976558774018287,-1.54402889239341,-1.3585111430875956
1761141525423537400,1.711537353515625,-5.528406863611936,-1.2582596476569772,0.17474113842137157
1761141525433596400,1.721596435546875,-1.39935124912858,-1.0400567494541406,0.509927471147105
1761141525443656400,1.731656494140625,2.3316309299528597,-1.052779525970295,-0.6037670537088066
1761141525453716500,1.741716552734375,5.654913182631135,-1.033891431757435,-1.466689047603309
1761141525463775500,1.751775390625,8.437091247066855,-1.0376141055423767,-1.7953709668710827
1761141525473835500,1.76183544921875,10.736322713196277,-1.0343099494304506,-1.6581556223109364
1761141525483895300,1.771895263671875,11.888863101536035,-1.2364011593312025,-1.315842068053782
1761141525493954300,1.781954345703125,11.985939327931403,-1.0516262642819434,-0.9600418402358889
1761141525504014300,1.792014404296875,12.004244215428828,-0.4710897909697145,-0.683250924790278
1761141525514074400,1.802074462890625,11.322231088805198,-0.4226244507472962,-0.6947969126120209
1761141525524134400,1.812134521484375,10.177616817289591,-0.5942138471394777,-0.3001135580398142
1761141525534193200,1.822193115234375,9.033226417657733,-0.7467980988103896,0.4909455611709505
1761141525544253400,1.83225341796875,7.9676330758869645,-0.8953916734099387,0.7772697363764047
1761141525554313200,1.842313232421875,7.182603226903081,-0.9814832721933722,0.36186983005516227
1761141525564372200,1.852372314453125,6.4445350355803965,-0.821985149480775,0.28146190293133255
1761141525574432300,1.862432373046875,5.475872374254465,-0.9141890205994248,-0.46891873054094607
1761141525584492300,1.8724921875,4.577011563429236,-1.3466171455457805,-0.44642413626872
1761141525594551300,1.88255126953125,3.33981545432806,-1.9354910929620264,-0.3178499249342829
1761141525604611300,1.892611328125,2.0582044494390486,-3.0807927622199056,-0.8204631275452673
1761141525614671000,1.902671142578125,0.5686725786477327,-3.56102367182672,-1.2191863320928067
1761141525624730400,1.91273046875,-0.8559031281083822,-2.938668895091116,-1.6842736677773296
1761141525634790100,1.9227900390625,-1.7312965541064738,-1.9298460728123783,-1.7849220535710453
1761141525644850200,1.93285009765625,-2.7294278865009542,-0.9058164021167904,-1.5234654123142362
1761141525654909400,1.942909423828125,-4.145642007625103,-0.08748356459848582,-0.8013725695628673
1761141525664969200,1.95296923828125,-5.4531227823078625,0.8140891355339437,0.05350545328147709
1761141525675029200,1.963029296875,-6.444644341173768,1.3933366650141774,0.29078751128986474
1761141525685089300,1.97308935546875,-6.553662934297323,1.5348697266429663,-0.015326456208527087
1761141525695148300,1.983148193359375,-5.593620801800489,1.5048526279114185,-0.3197000097803771
1761141525705208300,1.993208251953125,-3.943410877797007,1.3700643643677233,-0.44263840718492864
1761141525715268400,2.003268310546875,-2.059578660401702,1.0820319970048964,-0.35777912667542694
1761141525725327400,2.013327392578125,-0.10845336045622825,0.753213957202062,-0.2680281286016106
1761141525735387400,2.023387451171875,1.5854045666158199,0.4181899023659527,-0.08046849820464849
1761141525745447400,2.033447509765625,2.748381008774042,-0.04501227715909481,0.20073672655187547
1761141525755506200,2.043506103515625,3.450734912636876,-0.22588366196379064,0.2908404835861176
1761141525765566500,2.05356640625,3.412283893689513,-0.30456155042462046,0.2237359824106097
1761141525775626200,2.063626220703125,2.8395547331273554,-0.4951905783295631,0.06825337894968687
1761141525785685200,2.073685302734375,2.316404134726524,-0.7427189397379755,-0.11489851800762116
1761141525795745300,2.083745361328125,1.9825322456002235,-0.7815481443479657,-0.29489545806534584
1761141525805805300,2.093805419921875,1.7305436899125575,-0.7159601121500134,-0.5850402875375003
1761141525815864300,2.1038642578125,1.5673293962210415,-0.7163342061594128,-1.1012263076227158
1761141525825924400,2.11392431640625,1.7587907102316618,-0.6265577813833951,-0.8272588520999997
1761141525835984100,2.123984130859375,1.684368798714876,-0.41318507981598374,-0.6132011639431119
1761141525846044400,2.13404443359375,1.7246482021331786,-0.324382505040802,-0.5814425187738612
1761141525856103200,2.144103271484375,1.6474942353039979,-0.2508352939993143,-0.4036923712622374
1761141525866163200,2.1541630859375,1.2444658078432083,-0.07126178525174036,-0.06394282227419316
1761141525876223200,2.16422314453125,0.557489505854249,-0.032596429433953016,0.2345556652517989
1761141525886282200,2.1742822265625,-0.3067874828457832,-0.11471528866151347,0.37102168928198515
1761141525896342300,2.18434228515625,-0.8723924906164408,0.01608653787780786,0.26613190305884926
1761141525906402300,2.19440234375,-1.2616519204437733,0.3251104539891705,0.082769907014817
1761141525916461300,2.20446142578125,-1.429500888198614,0.36830742535460737,-0.060689154240489006
1761141525926521300,2.214521240234375,-0.9715876088619232,0.18093531688638032,0.07939191848170012
1761141525936581400,2.224581298828125,-0.05202712435722351,0.008921361239464022,0.39346232487726956
1761141525946640100,2.23464013671875,0.8318553130447864,-0.03900714585962705,0.450088102136366
1761141525956700400,2.244700439453125,1.5132400786370037,-0.10621493387967347,0.44144996458534147
1761141525966760400,2.254760498046875,2.059007582515478,-0.2914477104979567,0.5387866685478017
1761141525976819200,2.264819091796875,2.567527598017454,-0.4023805580113083,0.6138746792905032
1761141525986879200,2.274879150390625,2.9104543157368896,-0.4355187113728374,0.6585732143253088
1761141525996939300,2.284939208984375,2.9274615646392106,-0.4562717957399785,0.5929849263990298
1761141526006999300,2.294999267578125,2.7365017704099417,-0.4587144761843607,0.4648569609947502
1761141526017058300,2.305058349609375,2.7006244013428686,-0.5020590027943254,0.37729127107076343
1761141526027118000,2.3151181640625,2.811550873914361,-0.5475081370007246,0.28295374892428515
1761141526037178400,2.325178466796875,2.959069001302123,-0.5611776928476989,0.15725399704761803
1761141526047237400,2.3352373046875,3.0200170987397432,-0.5106251710876822,-0.17067290260177104
1761141526057297200,2.345297119140625,2.959285274401307,-0.409834856072627,-0.41010337081570175
1761141526067357200,2.355357177734375,2.866859504160285,-0.36512839345969256,-0.588360700664483
1761141526077416200,2.365416259765625,2.880863479593396,-0.3782841545656323,-0.6326163507699966
1761141526087476200,2.375476318359375,2.8425825565159317,-0.3582616494953632,-0.5327323369449004
1761141526097536300,2.385536376953125,2.757885334700346,-0.3965674878183752,-0.31910281107220795
1761141526107595300,2.39559521484375,2.541174428620934,-0.48652964442484076,-0.3349926733171567
1761141526117655300,2.4056552734375,2.284676871076226,-0.4687652570122853,-0.3998180505795404
1761141526127715300,2.41571533203125,2.0208447328597305,-0.3780776722081005,-0.3904497721230611
1761141526137774300,2.4257744140625,1.7094634924829004,-0.24253526582885532,-0.39302765978705134
1761141526147834400,2.43583447265625,1.286152739971876,-0.09025041722962632,-0.37833836897090073
1761141526157894400,2.445894287109375,0.6798492265880107,0.05830167458206415,-0.4149198311867192
1761141526167954200,2.4559541015625,-0.2037006178587675,0.049464142001420255,-0.3399987379761413
1761141526178013400,2.466013427734375,-1.240271863284707,-0.2266850232082419,-0.13922047383747993
1761141526188073500,2.476073486328125,-2.086370805737376,-0.3490426433164626,0.05855700105000287
1761141526198133200,2.48613330078125,-3.178476306858659,-0.5867744178537279,0.42296701710727064
1761141526208192300,2.496192138671875,-4.378470520290732,-1.004558296702057,0.6676575612738728
1761141526218252300,2.506252197265625,-5.509959352773428,-1.0133444644216447,0.5524656863428652
1761141526228312300,2.516312255859375,-6.86950699930191,-0.829049315713346,0.2856036423785612
1761141526238371300,2.526371337890625,-8.910136629083752,-0.8399583938710391,0.36767464387640353
1761141526248431000,2.53643115234375,-11.282773523163796,-0.9658714962374418,0.7164655774541199
1761141526258491400,2.546491455078125,-14.03351716941595,-0.6901838658586144,0.7337257782042026
1761141526268550400,2.55655029296875,-17.30417199375629,0.4586372096970677,0.5287737720448523
1761141526278610200,2.566610107421875,-20.445794779992102,1.685793863081932,0.45951234856378287
1761141526288670200,2.576670166015625,-22.441869228732585,2.154771118877083,1.0484751798398793
1761141526298729200,2.586729248046875,-22.907581199121474,2.0752410705663262,1.8828375072695314
1761141526308789200,2.596789306640625,-22.30498355451822,1.8931570951014756,2.262920820211619
1761141526318849300,2.606849365234375,-20.858532700562478,1.6998953075401484,2.1628386899985372
1761141526328909300,2.616909423828125,-18.15046382843256,1.1695499753296374,2.1665530343465504
1761141526338968300,2.62696826171875,-15.343896003627776,0.608062595478259,2.3321631371334193
1761141526349028400,2.6370283203125,-13.019060725164413,0.16225662764050067,2.1511974981740116
1761141526359088000,2.647088134765625,-11.343334667110442,-0.48522499156706034,1.6732982463851571
1761141526369147400,2.6571474609375,-9.428528634780644,-0.9926389455232769,1.264370677883178
1761141526379207400,2.66720751953125,-6.998674061962962,-0.8365545767769217,0.5458053151382133
1761141526389267200,2.67726708984375,-4.68998620070219,0.023240590333938597,-0.3110349111571908
1761141526399326200,2.687326171875,-2.92949511629343,0.8816005370099097,-0.8080565043061971
1761141526409386500,2.697386474609375,-1.8041636373966932,1.6160636165127158,-1.1534572839889674
1761141526419446300,2.7074462890625,-0.711736649236083,1.9752882658213375,-1.5823625685714184
1761141526429505300,2.71750537109375,1.4419856912404299,1.7214263174772262,-1.7898904896333812
1761141526439565000,2.72756494140625,4.515946561613679,1.0888882926404475,-1.3657517618656159
1761141526449625300,2.737625244140625,8.194335214626788,0.5708917160019278,-0.7838361822199076
1761141526459684400,2.747684326171875,11.627419319760799,0.1517767346803099,-0.6968075217820704
1761141526469744000,2.757744140625,14.743291578668355,0.3841534849904477,-0.6214637461800128
1761141526479804200,2.76780419921875,17.146933267343044,0.27068719174303113,-0.6301723916839808
1761141526489863400,2.777863525390625,18.77326254954338,0.04868497432246804,-0.7926863550864159
1761141526499923200,2.787923095703125,19.622764578437803,-0.04289806148409843,-0.22216610274538395
1761141526509983200,2.797983154296875,19.34585434746146,-0.7445293501608073,-1.0016244352072476
1761141526520043300,2.808043212890625,17.06562510344386,-0.8517159055516124,-1.0479827201478182
1761141526530102300,2.818102294921875,15.046381376039982,-0.9665493224337697,-0.475690014774166
1761141526540162300,2.828162353515625,13.36683488291502,-0.4441592600766569,-0.536709095088765
1761141526550222300,2.838222412109375,11.25335102932453,0.13132884380482138,-0.4570890669396147
1761141526560281300,2.84828125,8.732418009221552,0.5428229383265599,-0.661434595105797
1761141526570341400,2.85834130859375,6.503036908909678,0.9595074410982429,-0.49989473743252455
1761141526580401200,2.868401123046875,4.906930915537476,1.0642020335428417,-0.39082127231657504
1761141526590460400,2.87846044921875,4.263684449681639,1.0969381819747388,-0.4808812267417088
1761141526600520400,2.8885205078125,4.5234459774583575,0.9312797830667346,-0.3474553010597825
1761141526610580200,2.898580322265625,5.517517805328965,0.7626560315471143,-0.24139464442636815
1761141526620639200,2.90863916015625,6.779080878445506,0.6261622061945498,-0.28355913093890994
1761141526630699500,2.918699462890625,7.769173865813016,0.5748864116612822,-0.3771496706429869
1761141526640759300,2.92875927734375,8.697535496410728,0.5221941744588315,-0.5425347690349445
1761141526650818300,2.938818359375,9.276093509256839,0.3955622562985867,-0.7114231263075024
1761141526660878000,2.948878173828125,9.665836923208833,0.2991307575475424,-0.7093399633578956
1761141526670938400,2.9589384765625,9.921821855056285,0.2542788585819304,-0.7003158221639693
1761141526680997400,2.968997314453125,9.997170233768225,0.20413981299363076,-0.7597868327863514
1761141526691057200,2.97905712890625,9.906564664691686,0.1543787338722497,-0.7547012000851333
1761141526701117200,2.9891171875,9.663236385321616,0.09445143084973097,-0.6674811817936599
1761141526711176400,2.999176513671875,9.451656996911764,0.06764291890114546,-0.5164947572408244
1761141526721236200,3.009236328125,9.213232856196164,0.08702055019661784,-0.4448302181407809
1761141526731296300,3.019296142578125,9.030854427829384,0.1356285868253559,-0.44984990946631875
1761141526741356300,3.029356201171875,8.894200808805227,0.21151720989383757,-0.37021340510640294
1761141526751415300,3.039415283203125,8.83617415177226,0.349389337862283,-0.3035538712194189
1761141526761475300,3.049475341796875,8.827123999354242,0.5465210987247526,-0.28290256672631947
1761141526771535400,3.059535400390625,8.570434718629718,0.9191795954283326,-0.08726000324198975
1761141526781594400,3.069594482421875,7.822910132175683,1.3799797553129494,-0.009091653472185135
1761141526791654400,3.079654296875,6.424570105916262,1.6595368475362657,-0.1378939562077634
1761141526801714200,3.089714111328125,4.710803947803377,1.675103542241454,-0.3746539083044976
1761141526811773200,3.099773193359375,2.200555987843871,1.3774071283459663,-0.22240047775683924
1761141526821833500,3.10983349609375,-0.7430617618262767,0.5439276481654495,-0.14984820516998879
1761141526831893200,3.119893310546875,-3.411685343274474,-0.6317549847003072,-0.22794454001635311
1761141526841952300,3.1299521484375,-5.328336126688122,-2.2580472228258848,-1.158298367344588
1761141526852012300,3.14001220703125,-7.051794242253899,-4.2988004789873955,-2.6422008539468047
1761141526862072300,3.150072265625,-9.083087888413667,-5.825734444195032,-2.2306620800331234
1761141526872131300,3.16013134765625,-11.37006368408203,-6.654071519985795,-0.19704605534039438
1761141526882191000,3.170191162109375,-13.83791627138257,-4.201338175883889,1.5135392077140508
1761141526892251100,3.180251220703125,-18.754345083105562,1.1758339509699494,1.6063776504091918
1761141526902310400,3.190310302734375,-26.788654570949078,4.5668379599392415,1.8945666696384549
1761141526912370200,3.2003701171875,-33.26243323667049,4.606847898766398,2.108896233539283
1761141526922430200,3.21043017578125,-31.814525754165647,5.068460617142915,1.8810751737721263
1761141526932490200,3.220490234375,-25.363826350736616,4.798427870720625,-1.3045077502213418
1761141526942549200,3.23054931640625,-17.897534192502498,4.844916065651178,-2.7654095927253364
1761141526952609300,3.240609375,-11.020498551261424,3.422977429400384,-0.10082247285214252
1761141526962669300,3.25066943359375,-6.233160814353823,0.31276494982019065,1.080819552475214
1761141526972728300,3.260728271484375,-3.0850282078325746,-0.6127528721863403,2.3319249444633723
1761141526982788400,3.270788330078125,-1.5946224768161772,-0.9650172905609011,1.1432025780867785
1761141526992848400,3.280848388671875,-1.3432675428569316,-0.72081785437949,0.18126361725898457
1761141527002907400,3.290907470703125,-0.9739192666798829,0.003384947996865958,-0.20778306486681103
1761141527012967400,3.300967529296875,-0.6763368345528841,-0.10531188409272581,-0.7916581810824572
1761141527023027200,3.311027099609375,-0.17509002492427825,-0.2608104523077607,-0.6634663931943475
1761141527033086200,3.321086181640625,1.0253098466992379,-0.11445775197017938,-0.6217012812629342
1761141527043146500,3.331146484375,2.634002349922061,-0.2755558937579393,-0.8790311979785561
1761141527053206300,3.341206298828125,3.9982343548744916,-0.3124216893404722,-0.7186049275703728
1761141527063265300,3.351265380859375,5.025487736856937,-0.30668705467861146,-0.37128516252376137
1761141527073325300,3.3613251953125,5.755742624080181,-0.1692407509068027,-0.32674203724637624
1761141527083385300,3.37138525390625,6.161508367550373,0.11061700476352125,-0.5477400460604578
1761141527093444400,3.3814443359375,6.411940925967693,0.1769677284296602,-0.9269052943095565
1761141527103504100,3.391504150390625,6.401189230328798,0.191873694203794,-1.2300813086599112
1761141527113564200,3.401564208984375,6.14392653363049,-0.051727045432105656,-1.1332667288754135
1761141527123623400,3.41162353515625,5.417144290953874,-0.186144868228212,-0.9301065745688974
1761141527133683200,3.42168310546875,4.70485059235692,-0.17226188882626592,-0.6137082366824149
1761141527143743200,3.4317431640625,4.213700229328871,-0.19050624177549033,-0.372952730409801
1761141527153802500,3.441802490234375,3.5145874993443487,-0.21005941230095923,-0.21705880620162932
1761141527163862300,3.4518623046875,2.5432196707129475,-0.2650073925409466,-0.21466168193202464
1761141527173922300,3.46192236328125,1.913270493325591,-0.25593108276836574,0.04444825006816536
1761141527183981000,3.47198095703125,1.744799009758234,-0.38030696563012895,0.42337983569186177
1761141527194041300,3.482041259765625,1.7536480866461992,-0.7040825542863458,0.9965952088683843
1761141527204101400,3.492101318359375,1.999557030159235,-1.1919172899603843,1.2373156438276172
1761141527214161400,3.502161376953125,1.8447119208842515,-1.3634770949319004,0.9245555163130164
1761141527224220200,3.51222021484375,1.418769650825858,-1.1518495565313844,0.35140582878384735
1761141527234280400,3.522280517578125,0.5895353339344263,-0.755657989353314,-0.5170948420258239
1761141527244340200,3.53234033203125,-0.4475812704145908,-0.29922881109453736,-1.1831661204889417
1761141527254399200,3.542399169921875,-1.4014198720961808,0.30132855985276397,-1.1552321116417645
1761141527264459300,3.552459228515625,-2.4927567269325257,1.0579910500735044,-0.5329030904019251
1761141527274519300,3.562519287109375,-3.4375422535866496,1.4505442607492207,0.10583645595610142
1761141527284578300,3.572578369140625,-3.912491423398256,1.4658882526144386,0.52198710757941
1761141527294638300,3.582638427734375,-3.5101340270668264,1.086219438757375,0.44046968484371896
1761141527304698000,3.592697998046875,-2.6780864063203333,0.8298308945450932,0.23557123550251124
1761141527314757400,3.60275732421875,-1.5186732096016407,0.6207961491167545,0.13521332055535168
1761141527324817200,3.612817138671875,-0.13087503562271594,0.29959983636401594,0.1392560566075146
1761141527334877200,3.622877197265625,1.2572808657526968,0.06400748500823975,0.06696984194517135
1761141527344936400,3.6329365234375,2.1949901704102754,-0.07152253681346774,0.12482201919406652
1761141527354996200,3.642996337890625,2.7380565986365077,-0.23176855528391896,0.11569050863552838
1761141527365056300,3.65305615234375,2.8011820401132104,-0.1512801102697849,0.14236859913747757
1761141527375115500,3.663115478515625,2.4798189194262026,-0.22204875997602938,0.08458791622221469
1761141527385175300,3.67317529296875,2.0363152737140653,-0.3139755677189678,0.011477671825885771
1761141527395235300,3.6832353515625,1.5140069713562727,-0.3750937610264867,-0.1249832376377657
1761141527405294000,3.693294189453125,1.1228086824208496,-0.3548278025891632,-0.2993579904321581
1761141527415354400,3.703354248046875,0.8797200570255518,-0.3217114957332611,-0.37311332779899237
1761141527425414400,3.713414306640625,0.68693772354424,-0.3054514119364321,-0.3612459990683943
1761141527435473200,3.72347314453125,0.5338087705373764,-0.29062603711783885,-0.24420889812950045
1761141527445533200,3.733533203125,0.44261283435225485,-0.2036116244010627,-0.18275296076759695
1761141527455593500,3.743593505859375,0.19927578715384006,-0.10511486368328332,-0.12465528432503342
1761141527465653200,3.7536533203125,-0.13095745320916174,-0.015512699495628475,-0.08299619005136191
1761141527475712300,3.763712158203125,-0.507093197569251,-0.01719071571044624,-0.02708908245563507
1761141527485772000,3.77377197265625,-0.841410492375493,-0.025371172621846197,0.07110350768379867
1761141527495832300,3.783832275390625,-0.9170634069919585,-0.15719773681573568,0.08937650220561771
1761141527505891000,3.79389111328125,-0.8198825511783361,-0.2565677001714706,0.06123948159962892
1761141527515951000,3.803951171875,-0.7073813766360283,-0.32400727852024136,0.013695494005829095
1761141527526011100,3.81401123046875,-0.339914091899991,-0.46340369344651694,-0.08545198570564388
1761141527536070100,3.824070068359375,0.030959201887249946,-0.3806494223922491,-0.1313539782460779
1761141527546130200,3.834130126953125,0.361395271345973,-0.4575361165873706,-0.23730675405822693
1761141527556190200,3.844190185546875,0.6578922463238239,-0.5555146255847067,-0.3075502839118242
1761141527566249200,3.854249267578125,0.6696107411682606,-0.513790357120335,-0.300314852765575
1761141527576309200,3.864309326171875,0.5903384670108557,-0.4369992322541773,-0.30204810629896817
1761141527586369300,3.874369384765625,0.37868718240857124,-0.33468020983450114,-0.23632380743548273
1761141527596428000,3.884427978515625,0.15799392869472503,-0.34218320587575435,-0.19564364119656383
1761141527606488300,3.89448828125,0.014178162956237791,-0.40104689825475215,-0.17152948289848863
1761141527616548000,3.904548095703125,-0.11446633713543414,-0.5445210840139538,-0.11091375922039151
1761141527626607000,3.914607177734375,-0.11860475211441517,-0.644716684538871,-0.08181779392175376
1761141527636667100,3.924667236328125,-0.0028758476972579957,-0.6630312166474759,-0.0562719953853637
1761141527646727200,3.93472705078125,0.1231429800659418,-0.6161722156431526,-0.1070421054188162
1761141527656786200,3.9447861328125,0.3283826440602541,-0.5240524426113814,-0.13296587042212485
1761141527666846200,3.95484619140625,0.6896247706711292,-0.5367686432562768,-0.1722455222133547
1761141527676906000,3.964906005859375,1.0301759914308786,-0.5862101350344717,-0.27673268245235083
1761141527686965200,3.97496533203125,1.2079840431421995,-0.6405059349760412,-0.3192354610085487
1761141527697025000,3.98502490234375,1.2662240506649016,-0.6937200040955096,-0.36645408910550176
1761141527707085000,3.9950849609375,1.159931083112955,-0.7790347732875496,-0.4530217079028487
1761141527717144300,4.005144287109375,0.6765063459008932,-0.941419922678545,-0.2323459898456931
1761141527727204000,4.0152041015625,0.3864811972856521,-0.7939361359518021,0.036902985787764186
1761141527737264000,4.02526416015625,-0.07594809817075729,-1.0017005691833794,0.1330970955863595
1761141527747323400,4.035323486328125,-0.14510463650524616,-1.1552549079954624,0.13468122297264634
1761141527757383200,4.045383056640625,-0.20417291154563424,-1.1627676947783678,0.04398315330706536
1761141527767443200,4.055443115234375,-0.0033422961652278898,-1.1285901153665034,-0.16093801932260393
1761141527777503200,4.065503173828125,0.3122100924164057,-1.0118931696347893,-0.2344530451275408
1761141527787562200,4.075562255859375,0.684295100080967,-0.9996145566895603,-0.24058687170743942
1761141527797622300,4.085622314453125,1.0463275002866983,-0.8558013482343405,-0.2887240028887987
1761141527807682300,4.095682373046875,1.3966343913853168,-0.6345495107896626,-0.43268421859927475
1761141527817741000,4.105740966796875,1.8161328921318054,-0.4398710613634437,-0.5579395146440714
1761141527827801300,4.11580126953125,2.228572122016549,-0.2966138793557882,-0.620349939719215
1761141527837861000,4.125861083984375,2.9218361259728667,0.06074219960197806,-0.911600903802365
1761141527847920000,4.135920166015625,3.7177649701118467,0.4531150852747261,-1.2380975879855454
1761141527857980200,4.145980224609375,4.529112917178869,0.9447609767347573,-1.224743747024238
1761141527868040200,4.156040283203125,4.963929983088374,1.8101633162029087,-0.5518780957132577
1761141527878099200,4.16609912109375,4.451032483154535,2.876937830582261,-0.301878229624778
1761141527888159200,4.1761591796875,5.218994292959571,1.8298060281753539,-3.745784611415863
1761141527898219000,4.186218994140625,5.097346519887447,-0.017498393420130015,-3.528686167323589
1761141527908278300,4.1962783203125,3.773600839102268,-0.6181238611675799,-2.512260176564753
1761141527918338000,4.206338134765625,1.9290309570372104,-0.2065732506856322,-2.2481467371888457
1761141527928398000,4.216398193359375,0.6294347981244325,0.514780829462409,-1.8934721524000167
1761141527938457300,4.226457275390625,-0.022834932142496107,1.0372887460455298,-1.3850307550922036
1761141527948517000,4.23651708984375,-0.6359294208407401,1.4176862395033238,-0.9450279571078717
1761141527958577200,4.2465771484375,-1.6200456718862055,1.6249522947587072,-0.4216114012472331
1761141527968636200,4.25663623046875,-2.807103831377625,1.5875664208248257,0.22507702175602315
1761141527978696200,4.2666962890625,-4.180425151714682,1.2717442753911017,0.6374440631873906
1761141527988756200,4.276756103515625,-5.548398681282997,0.8418890696726739,0.7882863665618002
1761141527998815000,4.28681494140625,-6.883311068248748,0.2292508003093302,0.6396176078341901
1761141528008875000,4.296875,-8.628614520397782,-0.26409415015354754,0.14536357970237732
1761141528018935300,4.306935302734375,-10.824260524368286,-0.45974999324455856,-0.3012156740628183
1761141528028994000,4.316994140625,-13.320835348284243,-0.5547103965297341,-0.31798136929422616
1761141528039054000,4.32705419921875,-15.531802255505323,-0.528431607543677,-0.015615940674394369
1761141528049114000,4.337114013671875,-16.14843193259239,-0.963234498797357,0.36376930700093507
1761141528059173000,4.347173095703125,-16.353524297070503,-1.0136967119254172,0.9977189522013068
1761141528069233200,4.357233154296875,-16.409343799448013,-1.466808290068805,1.7600301888987422
1761141528079293200,4.367293212890625,-15.80735873378515,-2.3448024000845846,2.3897363513104617
1761141528089352200,4.377352294921875,-15.394545994412898,-2.961045854333043,3.0710259859651323
1761141528099412200,4.387412109375,-15.259022256201504,-2.9916049509868023,3.6711341518402096
1761141528109472300,4.39747216796875,-14.527772512722015,-2.8744729017734527,4.1264556611180305
1761141528119531300,4.40753125,-12.963213165736198,-3.2112861050486563,4.0870527482733126
1761141528129591300,4.41759130859375,-10.582764136600494,-3.991797599825263,3.2592315130501985
1761141528139651000,4.427651123046875,-7.472447758254408,-4.293625998958945,1.4789485174566506
1761141528149711000,4.437711181640625,-4.033256568416953,-3.9355180787205692,-0.7050451887734234
1761141528159770400,4.447770263671875,-1.0863830318212508,-3.2505250595033166,-2.2472823754444717
1761141528169830100,4.457830078125,0.4268126231521368,-1.8269674437485635,-3.2293083762124177
1761141528179890200,4.46789013671875,0.5128641821861267,-0.4405284292936325,-3.0104955294176934
1761141528189949200,4.47794921875,0.058741527304053305,0.022840777361392974,-1.5284687735594809
1761141528200009200,4.48800927734375,0.08364566693603992,0.25459815366417166,-0.2885848501464352
1761141528210069200,4.4980693359375,0.9676590372413396,0.39756636266261336,0.4375027978621423
1761141528220128000,4.5081279296875,2.5150766952902077,0.15450162959955632,0.9385556923538446
1761141528230188000,4.51818798828125,4.4504672504872085,-0.5358060087691993,1.1533896255802363
1761141528240248300,4.528248291015625,6.583686901161074,-0.5769572265859693,0.7444648335572331
1761141528250307000,4.53830712890625,8.898463142424822,0.22270590871050952,-0.07285648883096874
1761141528260367000,4.5483671875,10.781627835822105,1.2425053214251995,-0.6296294439136981
1761141528270427100,4.55842724609375,11.967187865710258,2.04899852193743,-0.8703071357097476
1761141528280486100,4.568486083984375,12.73644205341339,1.8671691057555377,-0.4754373917199671
1761141528290546200,4.578546142578125,13.100664657139777,1.233159839322418,-0.1431681154847145
1761141528300606200,4.588606201171875,12.972277931201457,1.4514312727168202,-0.3676236443415284
1761141528310665200,4.598665283203125,12.591805618941784,1.8633679599069057,-0.4202801526434719
1761141528320725200,4.608725341796875,12.59101066917181,2.032224935660511,-0.18866167335473
1761141528330785300,4.618785400390625,12.982447443038225,2.028555014976114,0.048284430697560304
1761141528340844000,4.628843994140625,12.879658099693058,1.975481158044934,0.21423899954054504
1761141528350904300,4.638904296875,11.820456504786014,2.036984405147284,0.10485880656298249
1761141528360964000,4.648964111328125,10.20775476592183,2.347001371433586,-0.12131682408470659
1761141528371023000,4.659023193359375,8.405943244609237,2.970932749836147,-0.1861141990953125
1761141528381083100,4.669083251953125,6.799145176830887,3.5089766737252472,0.3514662902668118
1761141528391143200,4.67914306640625,5.777198669084906,3.6793081059455868,1.2674730278126896
1761141528401202200,4.6892021484375,5.408056729134917,3.6736131091743705,1.879472853142023
1761141528411262200,4.69926220703125,5.605296042025089,3.404128059762716,2.20416146498993
1761141528421322000,4.709322021484375,6.197641757205128,2.8001772469848394,1.9615800584644079
1761141528431381200,4.71938134765625,6.956909972944855,2.3127603713966907,0.9785276372581719
1761141528441441000,4.72944091796875,7.792460048854351,2.030220610100776,-0.329112163911201
1761141528451501000,4.7395009765625,8.765830449479818,1.956274499402195,-1.4706914151124655
1761141528461560300,4.749560302734375,9.639870122781396,1.936176737138629,-1.921570850289613
1761141528471620000,4.7596201171875,10.301192928075789,1.6230913231924176,-1.599922482920438
1761141528481680100,4.76968017578125,10.573273839199542,1.483358442853391,-1.2765914231613278
1761141528491739400,4.779739501953125,10.564562124955653,1.6223280837349592,-1.2393275681719182
1761141528501799400,4.78979931640625,10.422502262973785,1.576589976519346,-1.166458073728904
1761141528511859200,4.799859130859375,10.115299769586324,1.3610221029952168,-1.2488666731506586
1761141528521918200,4.809918212890625,9.71845324563086,1.3243478844620287,-1.6015239267677068
1761141528531978500,4.819978515625,9.385898868843913,1.5237433524727821,-2.1313032956585287
1761141528542038300,4.830038330078125,9.140103322577476,1.5930584423698484,-2.5613345885962246
1761141528552097300,4.84009716796875,8.818441511204838,1.6684752101428806,-3.096648502999544
1761141528562157300,4.8501572265625,8.064106660214065,1.933905723466724,-3.50629517955631
1761141528572217300,4.86021728515625,6.736068835192919,2.04648946172595,-3.3256907751247287
1761141528582276400,4.8702763671875,4.374817843002081,2.1758923789694906,-2.7034485188528894
1761141528592336100,4.880336181640625,0.9071306265205145,2.3264801230609415,-1.9220836221173405
1761141528602396200,4.890396240234375,-2.3008085061877965,1.850922319831699,-0.40778921212181446
1761141528612455400,4.900455322265625,-4.588369408267736,0.6900188845552504,0.864696967677772
1761141528622515200,4.91051513671875,-6.517275277620554,-0.10060001660734415,0.42031390878260133
1761141528632575200,4.9205751953125,-8.339443942785262,-0.42142450037300583,-2.219128732497245
1761141528642635300,4.93063525390625,-11.259596061193943,-0.45856728626601395,-5.1240264370203015
1761141528652694300,4.9406943359375,-16.780922026634215,0.6258362621758132,-5.479012425845861
1761141528662754300,4.95075439453125,-24.62024436442852,2.770194196653366,-3.271097307410836
1761141528672814300,4.960814453125,-31.221444125926492,5.091870718824863,-1.0901413614414632
1761141528682873300,4.970873291015625,-34.41290324847698,6.9165276936739675,0.3168022425122559
1761141528692933400,4.980933349609375,-34.43384783682823,7.6337319606661795,1.836798809672147
1761141528702993400,4.990993408203125,-31.7220730959177,7.0346823639333245,3.18078692188859
1761141528713052200,5.00105224609375,-27.03753463922739,6.084627956965566,3.3576196988269684
1761141528723112400,5.011112548828125,-21.747316938531398,4.946232998356223,2.846350384616852
1761141528733172200,5.021172119140625,-16.87130898452401,3.485727315562963,2.6446464935332537
1761141528743231200,5.031231201171875,-12.290593305879831,2.1398416991621256,2.686486862657964
1761141528753291300,5.041291259765625,-7.650562099435925,0.8323640662845224,2.5397210149422285
1761141528763351300,5.051351318359375,-2.9181998152971267,-0.5695581293106079,2.2437971636772156
1761141528773410300,5.061410400390625,1.2488923921138047,-1.9081673249676823,1.9373608323566613
1761141528783470300,5.07147021484375,4.575152783820033,-2.872204664580524,1.5679675479941069
1761141528793530000,5.081530029296875,6.911801249673962,-3.1820401368200777,0.9481124791197478
1761141528803589400,5.09158935546875,8.489540396228433,-3.2241058391332627,0.9468285767890512
1761141528813649200,5.101649169921875,9.414382036006451,-3.422478539967537,1.782082446230948
1761141528823709200,5.111709228515625,9.663778237113355,-3.285370455174148,2.5963877817988394
1761141528833768400,5.1217685546875,9.666662852638959,-2.8672216154709456,3.2492309280395504
1761141528843828200,5.131828125,9.738095519211887,-2.8016633938893674,3.639678690868616
1761141528853888300,5.14188818359375,9.653930212315917,-2.538447049483657,3.317456030742824
1761141528863947300,5.151947265625,9.298561361652611,-2.1964098279498514,2.8617200954452153
1761141528874007300,5.16200732421875,8.778376042798161,-2.1008242785036564,3.201769504162669
1761141528884067300,5.1720673828125,8.166742274302244,-1.455645529410988,3.459319201108813
1761141528894126000,5.1821259765625,7.677756395831704,-0.4937867759462446,3.23856457259655
1761141528904186400,5.192186279296875,7.271093995782732,0.10172735840314999,2.87517754291147
1761141528914246400,5.202246337890625,6.7224576584696765,0.3947231020607054,2.371297169908881
1761141528924305200,5.21230517578125,6.056633450102805,1.273218293466419,1.3334059279255568
1761141528934365200,5.222365234375,5.685934343838691,1.776722088241577,0.6911663010247051
1761141528944425500,5.232425537109375,5.463917148044705,1.5580226386934517,0.7424884919829666
1761141528954484200,5.242484130859375,4.8596582922309635,1.6701586331851779,0.35138021941855546
1761141528964544300,5.252544189453125,3.7272020760208364,2.5725246756523847,-0.6976173768602312
1761141528974604300,5.262604248046875,2.1796464708060026,3.8025562999516724,-1.731048862955719
1761141528984663300,5.272663330078125,0.30604864717721936,4.452642256438732,-2.648953250816464
1761141528994723300,5.282723388671875,-1.8819430426478385,4.790777940489352,-3.6892870636463164
1761141529004783400,5.292783447265625,-4.62111140191853,4.692336855481565,-3.9708237853795287
1761141529014842400,5.30284228515625,-7.113126955094933,4.296538087013364,-3.211362677416205
1761141529024902400,5.31290234375,-8.045855548730492,4.0269229814812535,-1.9426561622858047
1761141529034962200,5.322962158203125,-7.198384148880839,3.9762180456385012,-0.5113320041827857
1761141529045021200,5.333021240234375,-5.67440991026163,4.143056959567964,0.5967254646342247
1761141529055081500,5.34308154296875,-4.601708197790384,3.9252828081712123,1.2779824391283094
1761141529065141200,5.353141357421875,-4.135601675125956,2.90672389703691,1.394250126597285
1761141529075200300,5.3632001953125,-4.185979863232374,1.609390422359109,0.5202959396220743
1761141529085260300,5.37326025390625,-4.40005282202363,0.32704781525991855,-0.7378729610115289
1761141529095320300,5.3833203125,-4.399444334736466,-0.6492980209797621,-1.6620952998474239
1761141529105379300,5.39337939453125,-3.761640352195501,-1.2221353180915115,-2.0724410645842553
1761141529115439000,5.403439208984375,-2.3896014728844164,-1.4424974401548505,-1.9629475474253295
1761141529125499100,5.4134990234375,-0.7473457227557897,-1.2591007746562362,-1.7807032668322325
1761141529135558400,5.423558349609375,0.8076894245594739,-1.066575776936859,-1.6432136353753506
1761141529145618200,5.4336181640625,2.100260214880109,-1.0471010419424622,-1.4293246548488736
1761141529155678200,5.44367822265625,2.921668368190527,-1.0715025658145547,-1.0653781646501272
1761141529165737500,5.453737548828125,3.1784967651247977,-1.0514866366155444,-0.7382707281574606
1761141529175797200,5.46379736328125,3.1465660878568884,-0.9187425922505557,-0.5753694094052538
1761141529185857300,5.473857177734375,3.2259786472678185,-0.7199176176041364,-0.5881821292271837
1761141529195916300,5.483916259765625,3.4037118801772595,-0.9418408515043556,-0.20216464046314359
1761141529205976300,5.493976318359375,3.2789643875241277,-1.1260549708656966,0.15292203225791454
1761141529216036400,5.504036376953125,2.818925202074647,-1.1174769660040735,0.04388926447853446
1761141529226095000,5.51409521484375,2.178168214946985,-1.050041260112822,-0.06773158356528729
1761141529236155400,5.5241552734375,1.4913573326528071,-1.0454314282298087,0.12818608879968524
1761141529246215400,5.53421533203125,0.8899018438220023,-1.2949711294606328,0.4029703040653839
1761141529256274200,5.544274169921875,0.3055892129719257,-1.3291869950562716,0.4535941740285605
1761141529266334200,5.554334228515625,-0.17159049237072466,-0.9687636374823748,0.3473804091926664
1761141529276394200,5.564394287109375,-0.44955403179228304,-0.44838001957684753,0.394647077682428
1761141529286453200,5.574453369140625,-0.46065819413065906,-0.1431871124461293,0.7346393859177828
1761141529296513300,5.58451318359375,-0.3857026141285896,0.11715820656791329,0.9552029488373547
1761141529306573300,5.5945732421875,-0.392522231015563,0.38535043969005345,1.1664089738901704
1761141529316632300,5.60463232421875,-0.45525604282617566,0.6064220251969993,1.5372434700369835
1761141529326692400,5.6146923828125,-0.5061795898556709,0.5461245006226003,1.8178024327792226
1761141529336752000,5.624752197265625,-0.6310480785399675,0.3556085046380758,1.64110278070122
1761141529346811400,5.634811279296875,-0.919518983450532,0.09023965837359428,1.1670338277902454
1761141529356871400,5.644871337890625,-1.2892676571220159,-0.2177053239442408,0.7331703362785279
1761141529366931200,5.65493115234375,-1.5146481918692587,-0.3625659225605428,0.49133996731601653
1761141529376990200,5.664990234375,-0.9614286184191704,-0.16378281429447233,0.45334012620225544
1761141529387050500,5.675050537109375,-0.1789998918443918,-0.5556336488544941,-0.16511154214758425
1761141529397110300,5.6851103515625,0.03217851454913616,-0.9049692837681621,-0.17562762066600843
1761141529407169300,5.695169189453125,-0.10218319414556026,-0.4198155308064073,-0.47909532970562574
1761141529417229000,5.70522900390625,-0.2594868024885654,-0.025374460557475685,-0.13028205643193796
1761141529427289300,5.715289306640625,-0.29070319400727745,0.07190861352160573,0.3501811823597178
1761141529437348400,5.725348388671875,-0.08251870873272418,0.13920688370354473,0.8383858107920735
1761141529447408000,5.735408203125,0.3592851473242044,0.04284640436209738,0.8812496046803892
1761141529457468200,5.74546826171875,1.0062561866611242,-0.1468735458739102,0.8721351548545062
1761141529467527400,5.75552734375,1.6802607788741588,-0.3433159362327307,0.870585879585892
1761141529477587200,5.765587158203125,2.2671803773522377,-0.4813241847362369,0.9438281528640537
1761141529487647700,5.775647705078125,2.7234827143609524,-0.6559573327384889,1.0136660245262086
1761141529497706800,5.785706787109375,3.090008918854594,-0.7770110123749822,0.936546763684228
1761141529507766800,5.795766845703125,3.45794499014616,-0.7991174110472202,0.8244395568955689
1761141529517826800,5.805826904296875,3.7141637307494877,-0.6658314418252557,0.5944928467439488
1761141529527885600,5.815885498046875,3.8625329220086333,-0.5220072735846042,0.5288967043047771
1761141529537945900,5.82594580078125,3.9287978305548426,-0.5604997570535167,0.7331137837857008
1761141529548006000,5.836005859375,3.836539233574271,-0.6017861090246588,0.976809362098202
1761141529558064600,5.846064697265625,3.622078152248263,-0.6492483366191387,0.9696504302542656
1761141529568124700,5.856124755859375,3.5184961972206827,-0.5403291852820664,0.6740117526061833
1761141529578184700,5.866184814453125,3.7666228167831894,-0.4524165816165507,0.08596768014281987
1761141529588243700,5.87624365234375,4.397937437304854,-0.5254100677654147,-0.6177720520552248
1761141529598303700,5.8863037109375,5.126780704164505,-0.7036294036913663,-1.0794267829425632
1761141529608363500,5.896363525390625,5.611348766192793,-0.7288154290046542,-1.4094029798045753
1761141529618422800,5.9064228515625,5.680384308496118,-0.4603812768854201,-1.4943018616721033
1761141529628482800,5.91648291015625,5.364290652644634,-0.24818719064332542,-1.2914248351559041
1761141529638542600,5.92654248046875,4.879924250668287,-0.06970080127902328,-0.8878487837497144
1761141529648601900,5.936601806640625,4.481318315824866,0.2593815154831856,-0.7476850377127527
1761141529658661600,5.94666162109375,4.426286748954653,0.6760670046355575,-0.8534016666814684
1761141529668721700,5.9567216796875,4.695931957364082,0.921729791367799,-0.8440471244893968
1761141529678780700,5.96678076171875,4.923589789393544,1.0122393527239562,-0.9176633456464857
1761141529688840700,5.9768408203125,4.8027819742769,1.1903759057372807,-1.1408140755150467
1761141529698900700,5.986900634765625,4.008638259989023,1.4773916434034704,-1.3802445437289774
1761141529708959700,5.996959716796875,2.3427836076080797,1.5185117354296147,-2.0467314537882806
1761141529719019800,6.007019775390625,-0.1653109737098217,1.3250925653494894,-2.8192060648426414
1761141529729079800,6.017079833984375,-3.9807653336793183,1.3434678877346218,-3.347240051370859
1761141529739138600,6.027138671875,-9.941686246955394,1.8151712074927984,-3.7442601783275604
1761141529749198600,6.037198486328125,-18.980601816165446,3.2866061344489452,-4.093780595223605
1761141529759258600,6.047258544921875,-30.691874308133123,5.1905806839019055,-3.843480723275244
1761141529769317600,6.057317626953125,-42.55466656434536,6.088366558972001,-3.8722155271112917
1761141529779377700,6.067377685546875,-51.53834247689247,6.6902540094792835,-5.447471624678373
1761141529789437700,6.077437744140625,-55.233114693951606,7.426119722321629,-6.2436447989672414
1761141529799496700,6.08749658203125,-52.63109913539886,7.851977236706018,-5.009840670391917
1761141529809556700,6.097556640625,-45.68144717075825,7.8836507243424645,-2.715733707669377
1761141529819616800,6.10761669921875,-37.103057693731785,6.952973802539706,0.05911029211778659
1761141529829675800,6.11767578125,-28.198338998043535,5.202869087588787,2.1360503440551457
1761141529839735800,6.12773583984375,-20.210424181628227,3.2776649953633545,3.1956928145974874
1761141529849795800,6.1377958984375,-13.057300147187709,1.834796383808553,3.6496290069967507
1761141529859854600,6.1478544921875,-6.626984191095828,1.1451239746034145,3.4428152255535123
1761141529869915000,6.157914794921875,-1.0035217932611704,1.1788491340726612,2.9803748241811987
1761141529879974700,6.167974609375,3.8310552492052317,1.9199986325368283,2.1695688750363886
1761141529890033700,6.17803369140625,8.09727827745378,3.134945792689919,0.9338296867452561
1761141529900093700,6.18809375,11.364440583503246,4.163343668532371,0.07338573686946183
1761141529910153700,6.19815380859375,13.28520055580139,5.253807832187414,-0.2486730744641274
1761141529920212700,6.208212646484375,14.47528127798438,6.179996794921159,0.12602277328595518
1761141529930272800,6.218272705078125,15.488546466624737,6.670154639780521,0.5830135309502482
1761141529940332500,6.22833251953125,16.27256567726135,6.215849029546976,0.813764141363278
1761141529950391800,6.238391845703125,16.623419096326828,5.407498510730266,0.5945744971454143
1761141529960451600,6.24845166015625,16.512695452851055,4.652778752075135,0.77331997583732
1761141529970511600,6.25851171875,16.020933679926394,3.972223715305328,1.4793562214747071
1761141529980571000,6.26857080078125,15.488597904551028,3.761816001023352,2.084662248253822
1761141529990630700,6.278630615234375,15.764309865653514,3.53097866217494,2.6785908487111327
1761141530000690700,6.288690673828125,17.046222483837603,3.4290529499217866,2.9075173855021594
1761141530010749700,6.298749755859375,18.639089056897163,3.651752575021982,2.694078048439324
1761141530020809700,6.308809814453125,19.556213254165648,3.7523742189392446,2.320369823487103
1761141530030869800,6.318869873046875,19.600106171905992,3.668695526516437,1.8177844587311147
1761141530040928500,6.328928466796875,18.602360039436817,3.447847374501824,1.2519948881737888
1761141530050988800,6.33898876953125,16.75309293946624,3.3175124371051785,1.0031981142647564
1761141530061048800,6.349048828125,14.831335772824287,3.3581606738358736,0.7887927086487412
1761141530071107600,6.359107666015625,13.322448628699778,3.3902389428809285,0.5092785057190805
1761141530081167600,6.369167724609375,12.157791101586819,3.4029920414701103,0.23639767638929188
1761141530091227000,6.379226806640625,11.072217048060894,3.695114162364602,-0.14206285765655338
1761141530101286700,6.38928662109375,10.142799186408519,4.346659377749264,-0.4298164080779999
1761141530111346700,6.3993466796875,9.476109885644911,4.636121924045682,-0.017273937014490363
1761141530121405700,6.40940576171875,9.07789791855514,4.6072240386024115,0.5271100766163319
1761141530131465700,6.4194658203125,9.067104721862076,4.760760695627331,0.6124122055225074
1761141530141525800,6.42952587890625,9.60543301565051,4.865825582689046,0.6331488502115011
1761141530151584500,6.43958447265625,10.511810193455219,4.709906706702709,0.6168354287922382
1761141530161644800,6.449644775390625,11.281759962207078,4.407714150431752,0.5225177073247731
1761141530171704800,6.459704833984375,11.71255727108121,4.187804740571975,0.3285070010922849
1761141530181763600,6.469763671875,11.881530858951807,3.8812706479653714,0.13281674427501858
1761141530191823600,6.47982373046875,11.839808855509757,3.623962066298723,-0.08661628024466335
1761141530201884000,6.4898837890625,11.83754558675289,3.479961591643095,-0.3325574455268681
1761141530211942700,6.499942626953125,12.096903794425724,3.2226375201463697,-0.4376302966993302
1761141530222002700,6.510002685546875,12.680388742280005,2.9092335417702793,-0.6267872792903334
1761141530232062700,6.520062744140625,13.378291511952876,2.5766762423738836,-1.0516994025833903
1761141530242121700,6.530121826171875,14.039562294799088,2.1180095143213866,-1.322213795042783
1761141530252181800,6.540181640625,14.37865630248785,1.6085016568258403,-1.4755724651522935
1761141530262241500,6.550241455078125,14.172081590497493,1.4141583576381205,-1.7312306492634117
1761141530272300800,6.56030078125,13.67931327087879,1.665510076726973,-1.9102382860228417
1761141530282360800,6.57036083984375,12.99299221792817,2.094842719876021,-1.857605304726958
1761141530292420600,6.580420654296875,12.027510524725914,2.686452083605528,-1.8832059021905063
1761141530302479600,6.590479736328125,10.76863742134571,3.428903020057082,-2.0590989140607414
1761141530312540000,6.600539794921875,9.106118635389208,4.517856194627285,-1.9180925066545604
1761141530322599700,6.610599609375,6.8191475158959625,5.629058610406518,-1.0835003890570252
1761141530332658700,6.62065869140625,4.047530592963099,5.972563420274853,0.17004735458195208
1761141530342718700,6.63071875,0.4756739769548177,5.521127812519669,1.0559379169359802
1761141530352778800,6.64077880859375,-3.9282483799785375,5.224747157397866,0.5452446490481495
1761141530362837800,6.650837646484375,-8.846409130060673,5.236011478734016,-1.2939450012832878
1761141530372897500,6.6608974609375,-14.479004682421683,5.798372974538803,-5.0088680259674785
1761141530382957800,6.670957763671875,-21.76131974492073,6.914898046645522,-9.138218239483237
1761141530393016800,6.681016845703125,-30.380455073833463,7.204551439338922,-11.391994945383072
1761141530403076600,6.69107666015625,-38.136115962600705,7.431312030267715,-13.082358600598573
1761141530413136600,6.70113671875,-43.623785157632824,8.703826705509424,-13.523545201539992
1761141530423195600,6.711195556640625,-46.09695806317329,10.179422989928721,-10.959736331784725
1761141530433255700,6.721255615234375,-45.67815514347553,10.146680411756037,-5.859936573526263
1761141530443315700,6.731315673828125,-41.8780053201437,8.81584389592707,-1.0958616387844085
1761141530453374700,6.741374755859375,-35.44995263280868,7.398261409059167,1.3780857582598924
1761141530463434800,6.751434814453125,-28.665472525668143,5.88718932211101,1.7784452587723731
1761141530473494800,6.761494873046875,-22.5631434923172,3.8063048388302323,1.4619348388135431
1761141530483553500,6.771553466796875,-16.620428682339192,1.6255903004013001,1.038562126982212
1761141530493613000,6.781613037109375,-10.853119539105892,-0.3141315619982779,0.8381554361023008
1761141530503672800,6.7916728515625,-5.877356494882703,-1.874359894042462,0.9032863721825182
1761141530513731800,6.80173193359375,-1.6007880137085915,-3.0181191561639307,0.964977031615749
1761141530523792100,6.811792236328125,1.7760183238863945,-3.9874136856526134,0.7652214981209486
1761141530533852000,6.821851806640625,4.362203860622644,-4.229176030880213,0.08358100420199334
1761141530543911000,6.831910888671875,6.4092994715481995,-3.9851083313196893,-0.11346432048603891
1761141530553971000,6.841970947265625,7.793394699355959,-3.4180443569123744,0.5213189990594983
1761141530564030000,6.852030029296875,8.545490246987342,-2.5339599671974775,1.3660695956431328
1761141530574090000,6.862090087890625,9.218990981331467,-1.7479940064072608,2.418882804687321
1761141530584149800,6.872149658203125,9.963093776643275,-1.0333939305640756,3.4266286453843113
1761141530594209000,6.882208984375,10.607376015287636,-0.4607994292322546,4.071906032545864
1761141530604269000,6.89226904296875,11.145354764986038,-0.30513902151901273,4.502826675538718
1761141530614328800,6.902328857421875,11.541962219488621,-0.629492519661039,4.590999756771326
1761141530624388000,6.91238818359375,11.62736203661561,-0.9850350463908165,3.957186305171251
1761141530634448100,6.9224482421875,11.406390550482273,-1.1905622220896184,2.831417896161973
1761141530644508000,6.9325078125,10.994552793622017,-0.9878776494055986,1.6419351398721336
1761141530654567000,6.94256689453125,10.426842922526598,-0.5496860290290787,0.5779974563539028
1761141530664627000,6.952626953125,9.980648138034343,-0.4370024836571887,0.2620025847017765
1761141530674687000,6.96268701171875,9.717984459075332,-0.5244668686311692,0.5279623825967311
1761141530684746000,6.97274609375,9.543145194041728,-0.45289398986995216,0.5019156488008797
1761141530694805800,6.9828056640625,9.369171021404862,-0.394111253772676,0.42949440958201884
1761141530704866000,6.992865966796875,8.695394392728804,-0.5828665967602282,0.7031877243384719
1761141530714925000,7.002925048828125,7.17919137263298,-0.9881845964629202,1.4803447941206396
1761141530724984800,7.01298486328125,4.889726682758331,-0.8132298152908682,2.332337324656546
1761141530735044900,7.023044921875,2.123593159672618,-0.4347945618167519,2.74906577616781
1761141530745104100,7.033104248046875,-0.40546822182834147,-0.4364745507929474,3.493113041900098
1761141530755164000,7.043163818359375,-1.9064649049639701,-0.9106692489754408,4.390183754438161
1761141530765224000,7.053223876953125,-2.233626482796669,-1.3714070111483334,4.4215860239177935
1761141530775283000,7.063282958984375,-1.6054261949032544,-1.5580452889166772,3.17343772816956
1761141530785343000,7.073343017578125,-0.6255594179958105,-1.3980613554485142,0.4895758802529424
1761141530795403000,7.083403076171875,-0.41604806803166866,-1.15809875311926,-2.293399983496964
1761141530805461800,7.093461669921875,-1.8875842634052038,-1.7170391884341836,-2.8722534721583126
1761141530815522000,7.10352197265625,-4.922499071547389,-2.2474304056130348,-1.9206017129965125
1761141530825581000,7.1135810546875,-8.51199948079586,-1.6510148106455802,-0.8275428566731512
1761141530835640800,7.123640869140625,-11.136284154301881,-0.18337405180800706,0.20553104815632103
1761141530845700900,7.133700927734375,-12.151085466468334,1.7854853865422307,1.7364901772268115
1761141530855760000,7.143759765625,-11.802008993947505,4.0311552122235295,3.6743595436275003
1761141530865820000,7.15381982421875,-10.624342347657679,5.837894253066182,5.522260615941882
1761141530875880000,7.1638798828125,-9.170500798928737,6.059277827131748,6.497131484258174
1761141530885939000,7.17393896484375,-7.76521256096661,5.530982267057896,5.776347605213522
1761141530895999000,7.1839990234375,-5.9887342183530325,4.613004375569522,3.913716873539984
1761141530906059000,7.19405908203125,-3.9035593444019554,3.630456104493141,1.746855942288041
1761141530916118000,7.204117919921875,-1.6377584387093782,2.674905438196659,-0.06401175932455808
1761141530926178000,7.214177978515625,0.6847001737505197,1.8653838297739624,-1.4885799768939614
1761141530936238000,7.224238037109375,2.8429186566025018,1.346175100866705,-2.4687542123153805
1761141530946296800,7.234296875,4.622850354540348,0.8428723816215992,-2.745518020558357
1761141530956357000,7.244357177734375,5.785804584866762,0.43594292813427743,-2.5894784408017992
1761141530966417200,7.254417236328125,6.21354718234539,0.25370763456523415,-2.555152977351844
1761141530976476000,7.264475830078125,5.998633096554875,0.24915154216345398,-2.7895217051967975
1761141530986536000,7.274535888671875,5.514806792804598,0.09816456962134688,-2.9488398682326076
1761141530996596000,7.284595947265625,4.830847208288311,-0.08928944497667253,-3.047655339510739
1761141531006655000,7.294655029296875,3.8147476730048653,-0.1389617498360574,-3.2953602265298363
1761141531016715000,7.304715087890625,2.6741490668714043,-0.045026890206336975,-3.329472047229111
1761141531026774800,7.31477490234375,1.65670337767601,0.064667446754314,-3.061879095174372
1761141531036834000,7.324833984375,0.8227765190541744,0.2538361197831109,-2.4960095912486313
1761141531046894000,7.33489404296875,0.252695242652297,0.7021748940341174,-1.749665592881292
1761141531056953900,7.344953857421875,-0.0511602783948183,0.9778272339038551,-0.8341573063768446
1761141531067013000,7.35501318359375,-0.04790332242548465,0.9634231532372534,-0.003493833465129137
1761141531077073000,7.365072998046875,0.20035773717164992,0.6775665224783122,0.8326344807237386
1761141531087132000,7.3751318359375,0.48205227981507776,0.2797987920247018,1.3526743997581303
1761141531097192000,7.38519189453125,0.722134124609828,-0.06773688079491258,1.2934911200359462
1761141531107252000,7.395251953125,1.0022808532893657,-0.3152824855990708,0.6097214320685714
1761141531117311000,7.40531103515625,1.1914034952193497,-0.4918994278296828,-0.30526942469934
1761141531127371000,7.41537109375,1.1889502568483352,-0.9616397038865834,-0.7996938226956873
1761141531137430800,7.4254306640625,1.2851415171027183,-1.6425278450682759,-0.9080383890151977
1761141531147490000,7.435489990234375,1.2612608752995729,-1.874183806823194,-1.1311835659258067
1761141531157549800,7.4455498046875,1.0286316845983265,-1.7135281115733085,-1.4586027717813848
1761141531167609900,7.45560986328125,0.6530296087235212,-1.4084255130745469,-1.4039341930046676
1761141531177669000,7.465669189453125,0.2695359028160572,-1.0833771280035376,-0.7550394921287894
1761141531187729000,7.47572900390625,-0.16453998933732508,-0.7445129835478961,0.012850494549050927
1761141531197789000,7.485788818359375,-0.7757154926717281,-0.5043794085659087,0.5683789294634014
1761141531207848200,7.49584814453125,-1.5353630631178616,-0.21804668472781777,0.9515301786087452
1761141531217908000,7.505907958984375,-2.214602633374929,0.00955211059078574,1.1776605088099836
1761141531227968000,7.515968017578125,-2.5470178939521313,0.12761091926023363,1.1695637115940452
1761141531238026800,7.52602685546875,-2.5811189009964464,0.11895751107484101,0.9586124650198966
1761141531248087000,7.536087158203125,-2.3286989681541916,-0.09435936865210533,0.7501385683447123
1761141531258147000,7.54614697265625,-1.885170188000798,-0.3497264608621597,0.45070656282827254
1761141531268205800,7.556205810546875,-1.4243734621822832,-0.5229233655162155,0.12415844071879982
1761141531278265900,7.566265869140625,-1.1785264779895543,-0.42894495900571344,-0.20154318409655242
1761141531288326100,7.576326171875,-1.2228092718303203,-0.24046762924194334,-0.13122362986467778
1761141531298385000,7.586385009765625,-1.2628911068499087,-0.5856053740743548,0.3364575947705656
1761141531308445000,7.59644482421875,-1.1388853724747896,-0.7327355981230735,0.2763545698549598
1761141531318505000,7.6065048828125,-0.8089192586153745,-0.6369072528969496,-0.10433595173265785
1761141531328564000,7.61656396484375,-0.3508212703615427,-0.7738209110967814,-0.33843905091136695
1761141531338624000,7.6266240234375,0.038333530047535896,-1.0152067511621863,-0.5347820360163227
1761141531348683000,7.63668310546875,0.21680326053798196,-1.1528523038331417,-0.6759624482825398
1761141531358743000,7.646742919921875,0.287188463884592,-1.1379440730366854,-0.7978169229079037
1761141531368803000,7.656802978515625,0.3937544031590223,-1.1786945280328391,-0.7573250457827001
1761141531378861800,7.66686181640625,0.5284264929771423,-1.285015260374546,-0.6955327526059001
1761141531388921900,7.676921875,0.6704068599820137,-1.241911447185278,-0.646875470007956
1761141531398982100,7.686982177734375,0.7502922976016998,-1.0744363542441278,-0.45831616104915734
1761141531409041000,7.697041015625,0.706374829941988,-0.8465406948707997,-0.18448833319284022
1761141531419101000,7.707100830078125,0.5420078590840101,-0.6611516865111887,0.06925193413351662
1761141531429161000,7.717160888671875,0.37728199178576466,-0.579385549711436,0.209596324833855
1761141531439220000,7.727219970703125,0.308552154430747,-0.5445673343084753,0.24474755331715567
1761141531449280000,7.737280029296875,0.37087680091857905,-0.5924734332129359,0.19555979883801192
1761141531459339800,7.74733984375,0.5513017571300268,-0.690092242052406,0.13886905745076947
1761141531469399000,7.75739892578125,0.8350251752525567,-0.8076331643275916,0.040405240021366626
1761141531479459000,7.767458984375,1.1619973679929971,-0.9556362987533211,-0.12410586114819161
1761141531489519900,7.777519775390625,1.3705956947654485,-1.110874937390536,-0.38990284229740496
1761141531499578600,7.78757861328125,1.4668109204173088,-1.2218556243672967,-0.6476471850328147
1761141531509639000,7.797638916015625,1.4513409640848636,-1.245371962902695,-0.7234818128917366
1761141531519698000,7.807697998046875,1.4353268178731202,-1.0426087720245123,-0.6021861777255312
1761141531529757700,7.8177578125,1.332375561964512,-0.7050863975666463,-0.18255694500515238
1761141531539817700,7.827817626953125,1.2388894690155983,-0.6346927186526358,0.4326192270716652
1761141531549877000,7.837876953125,1.1954524783492089,-0.6035543608061968,0.7233778410606085
1761141531559936800,7.847936767578125,1.2910235608786345,-0.6864820887312293,0.7949636523686349
1761141531569996800,7.857996826171875,1.4202666113853453,-0.9014723084978759,0.7090837966397404
1761141531580055800,7.868055908203125,1.5956594186484814,-1.16895332461074,0.5379593874108046
1761141531590115800,7.87811572265625,1.789917085379362,-1.4302308099083603,0.33611144821401684
1761141531600175900,7.88817578125,2.125778102496266,-1.6709350243851542,0.17486986110126598
1761141531610234600,7.898234619140625,2.562717567387223,-1.9022792898423968,0.03383019074629992
1761141531620295000,7.908294921875,2.9192461094796656,-2.0487769881412388,-0.07802859423924237
1761141531630355000,7.91835498046875,3.030196547448635,-1.9550848512262105,-0.15905348421763627
1761141531640413700,7.92841357421875,2.9396237115979194,-1.7785579253666102,-0.012455686545185744
1761141531650473700,7.9384736328125,2.977207300060987,-1.6560630339458584,0.22943065038826316
1761141531660534000,7.948533935546875,3.1568793920785185,-1.4859461212590337,0.19976433785576372
1761141531670592800,7.9585927734375,3.3943133527129885,-1.3146907060615718,0.10246756404489278
1761141531680652800,7.96865283203125,3.497136013805866,-1.2795755535386502,0.13473667948693036
1761141531690712800,7.978712890625,3.502492572402954,-1.3126014786973594,0.03541486612185835
1761141531700771800,7.988771728515625,3.4588071599334476,-1.2102746382974088,-0.4468343610374257
1761141531710831900,7.998831787109375,3.430139283853769,-1.2180272982507943,-1.1185630076751112
1761141531720891000,8.008890869140625,3.353159504547715,-1.4173388873703776,-1.5199727478928864
1761141531730951000,8.018950927734375,3.1134365561932325,-1.4825341208584606,-1.614150622498244
1761141531741011000,8.029010986328124,2.526327572622895,-1.287307901356369,-1.4431611647605895
1761141531751069700,8.039069580078126,1.5569728373795746,-0.7563508669883012,-1.0562495401684193
1761141531761130000,8.0491298828125,0.3393126188755035,-0.2308728485532105,-0.5774643723905086
1761141531771190000,8.05918994140625,-0.8531704882740974,-0.029700653193518518,-0.1075221074881032
1761141531781248800,8.069248779296874,-1.7728396938502788,-0.011800985496118663,0.015564064356684684
1761141531791308800,8.079308837890625,-2.4458687190294266,-0.1020342871941626,-0.2454867725782096
1761141531801368800,8.089368896484375,-2.9334014760822056,-0.2815889633771032,-0.7409080909237266
1761141531811427800,8.099427734375,-3.412894134542346,-0.20671412046104667,-1.2964433939702809
1761141531821487900,8.10948779296875,-4.277497286456823,0.29738647116348144,-1.6903186470299958
1761141531831547600,8.119547607421875,-5.689791019266844,0.834396229699254,-1.5292762905500827
1761141531841607000,8.12960693359375,-7.5114488122999665,1.631707614237815,-1.1209044562347232
1761141531851667000,8.1396669921875,-9.762794491660594,2.616860660985112,-0.5640194556122645
1761141531861726700,8.149726806640626,-12.398621134400367,3.0239959392428397,-0.10750625233184545
1761141531871786000,8.159785888671875,-14.627545723116397,3.3331931135788557,-0.41697577733583746
1761141531881845800,8.169845703125,-15.886329979169368,3.840908534699678,-1.4817223660841583
1761141531891904800,8.17990478515625,-16.041796435213087,4.072832792001963,-2.574484285287559
1761141531901964800,8.18996484375,-14.99632525949478,4.422690770289302,-3.49962724609971
1761141531912024800,8.20002490234375,-13.592391358751058,4.472065918833017,-3.7244124453023075
1761141531922083800,8.210083740234374,-12.378254053676129,4.1634608651712535,-4.09065691024512
1761141531932143900,8.220143798828126,-11.695942820888757,4.335359108316898,-4.998933491930365
1761141531942203600,8.23020361328125,-11.95060381065607,4.1965030108124015,-5.131095644754171
1761141531952263000,8.240262939453125,-13.323860833585261,3.503943355733156,-4.416510035827756
1761141531962322700,8.25032275390625,-15.384383496838808,2.65745599848479,-3.547457503288984
1761141531972382700,8.2603828125,-17.36829170696735,1.8379545555785297,-2.7862808235794305
1761141531982442000,8.27044189453125,-18.34367870811224,0.9790939659040421,-1.9474485111288726
1761141531992501800,8.280501708984374,-17.755664884656667,-0.29697657518833875,-1.0693675996124743
1761141532002561800,8.290561767578126,-15.284999578022957,-1.6426843508042395,-0.3308776757463813
1761141532012620800,8.300620849609375,-11.013430512571334,-2.548101889796555,0.4366027802824974
1761141532022680800,8.310680908203125,-5.7294151736468075,-3.0204543211132284,1.2116416888669133
1761141532032740900,8.320740966796874,-0.39831484294235703,-2.9540117179125547,1.6915148710772394
1761141532042799900,8.3307998046875,3.7681443272620436,-2.4612965897858143,2.000653300963342
1761141532052860000,8.34085986328125,6.078961017245054,-1.7004124632820485,2.87983968950361
1761141532062919000,8.3509189453125,6.663716715687513,-0.726534551525861,4.120578001256287
1761141532072978700,8.360978759765626,6.195711081403494,0.2298725854694843,5.344310525411367
1761141532083038700,8.371038818359375,5.42243012240231,0.7586644776929169,6.291087518143653
1761141532093098000,8.381097900390625,4.690673598444461,0.7557431103534996,6.795153476846218
1761141532103157800,8.39115771484375,4.025562506783008,0.37858609665427356,6.455334077492356
1761141532113217800,8.4012177734375,3.38539530224204,-0.3610094138335436,5.263342553251982
1761141532123277000,8.411277099609375,3.1063170795768498,-1.4854033926844596,3.834005915704369
1761141532133336800,8.4213369140625,3.5698914534151553,-2.193294618538767,2.443416941963136
1761141532143396900,8.43139697265625,4.925114222481847,-2.2384533184312283,1.2397615756750107
1761141532153455600,8.44145556640625,6.876033186200261,-1.9597510894715784,0.567642651078105
1761141532163516000,8.451515869140625,8.814069287469982,-1.3566159769907593,0.32507264272943137
1761141532173575000,8.461574951171874,10.407020616203546,-0.43299628022313114,0.22670140808746217
1761141532183634700,8.471634765625,11.49850652412176,0.7920470342695712,0.10438348066881298
1761141532193694700,8.48169482421875,12.195958042895793,1.8409785795748232,0.22679770806878805
1761141532203754000,8.49175390625,12.643839757561683,2.211358975278586,0.7554593249760567
1761141532213813800,8.501813720703124,12.695516168785094,2.141286783403903,1.4086755423128603
1761141532223873800,8.511873779296875,12.070806061094999,2.212766796249896,1.9096542025245724
1761141532233932800,8.521932861328125,11.040594413828849,2.669106396529078,2.186246453592926
1761141532243992800,8.531992919921874,9.92611925998926,2.8854356098145244,2.153684638814628
1761141532254052900,8.542052978515626,8.939079230451583,3.1630773699358103,2.0034233501985668
1761141532264111900,8.55211181640625,8.176612510931491,2.9838474687278267,1.828295331351459
1761141532274172000,8.562171875,7.694635634440183,2.594533093842864,1.7758793538071214
1761141532284232000,8.57223193359375,7.5302587267100805,2.4053501000277695,1.6059489036031067
1761141532294290700,8.582290771484375,7.645513583874702,2.4175185305967926,1.260578884384781
1761141532304351000,8.59235107421875,7.985812875699996,2.49976105273664,1.0031811631299554
1761141532314409700,8.60240966796875,8.410181612831353,2.5724729454651474,0.9441707557566463
1761141532324469800,8.6124697265625,8.87483676764369,2.5142446283802387,0.9383753673508762
1761141532334529800,8.62252978515625,9.285577376917004,2.4713614722043276,0.8453599606536328
1761141532344588800,8.6325888671875,9.526828850013016,2.71363089017123,0.36473796937
1761141532354648800,8.64264892578125,9.589749708828329,3.234672241333127,-0.2663101274362765
1761141532364708900,8.652708984375,9.48292365731299,3.5324878976941108,-0.5019967512130737
1761141532374767900,8.662767822265625,9.396879697063564,3.590818506109714,-0.5573659525398165
1761141532384828000,8.672827880859375,9.449702355712652,3.857266964304447,-0.7872744130402803
1761141532394888000,8.682887939453124,9.781342540264129,4.194589870667457,-1.133655435932055
1761141532404946700,8.69294677734375,10.52154599004984,4.072758557721972,-1.3423346459209917
1761141532415007000,8.703007080078125,11.505302175611257,3.4718972353920337,-1.3768471563756466
1761141532425067000,8.71306689453125,12.314980728161334,3.1056273437470194,-2.0085098596826194
1761141532435125800,8.723125732421876,12.694672119176387,3.0014126437738535,-2.7884853478863834
1761141532445185800,8.733185791015625,12.486413984143732,2.81642052577734,-2.8364377701506016
1761141532455244800,8.743244873046875,11.46450839293003,2.7430089603468772,-2.6198648112371563
1761141532465304800,8.753304931640624,9.93348657388687,2.407371815113723,-2.1069278560757634
1761141532475364900,8.76336474609375,7.88750038550794,1.6268649965122342,-1.0702330573353915
1761141532485423900,8.773423828125,5.220948934158683,0.6975730993270873,0.5305217847559601
1761141532495482600,8.783482666015624,2.0765613593846557,-0.390845529974997,3.2572546600192784
1761141532505542700,8.793542724609376,-0.5850011976361275,-1.3140183597579598,6.117204530921578
1761141532515602000,8.803601806640625,-1.7180851903557777,-1.621917310976982,5.967804827570915
1761141532525661700,8.81366162109375,-3.173350634407997,-2.5471701619043943,2.477662618175149
1761141532535721700,8.8237216796875,-8.368098374861479,-4.679028168836235,-0.7255091540008783
1761141532545781000,8.833781005859375,-16.319717889058587,-4.754905247597396,-4.181483720856905
1761141532555840800,8.8438408203125,-23.141843543982503,-2.252177161748707,-8.64032717002332
1761141532565900800,8.85390087890625,-26.953599633955953,0.4123417608596384,-10.784260522413254
1761141532575959800,8.863959716796876,-28.99532524228096,2.4418887094825505,-8.609152279558778
1761141532586019800,8.874019775390625,-28.664195929861066,3.6955621983930467,-3.6534269379749893
1761141532596078800,8.884078857421875,-25.3362883554697,4.270875237968564,0.2382213116198778
1761141532606138600,8.894138671875,-20.41608703947067,4.301927671097219,2.6200673480719328
1761141532616198700,8.90419873046875,-16.965208918970824,4.527167628329992,4.895049046824872
1761141532626258000,8.9142578125,-16.442518923819065,4.622159157405793,7.135485501897334
1761141532636317700,8.924317626953124,-17.108294032347203,4.1879391806066035,7.852448361349105
1761141532646377700,8.934377685546876,-16.24979854965806,3.2139807509601113,6.318937063577771
1761141532656436700,8.944436767578125,-12.658132486808299,2.0434642686858773,3.7081390636324882
1761141532666496800,8.954496826171875,-7.255901102825999,0.41035727251153437,1.3385136263281106
1761141532676556800,8.964556884765624,-1.2841998523384333,-1.242001317425817,-0.2752848582642153
1761141532686615800,8.97461572265625,4.0394846491515635,-2.2121021948613224,-1.5572740122832356
1761141532696675800,8.98467578125,7.591908834937215,-2.5605270716056228,-2.1767162625730037
1761141532706735900,8.99473583984375,8.90314808537066,-2.7704034554898738,-1.8061814069598912
1761141532716794600,9.004794677734376,8.566313254785538,-2.9644404652073977,-1.0411461521260439
1761141532726855000,9.01485498046875,7.244073886910081,-2.8258842274323106,-0.561343404803425
1761141532736913700,9.02491357421875,5.56877686792314,-2.4007922905929386,-0.3698366442158818
1761141532746973700,9.0349736328125,3.9722570330530402,-2.125974209590256,0.09215835147649049
1761141532757033700,9.04503369140625,2.626564308875799,-1.9050234739840028,0.9196228091511874
1761141532767092700,9.0550927734375,1.6101713436037302,-1.5169452167652546,1.6375129395157098
1761141532777152800,9.06515283203125,0.8319318854123353,-0.9854786254398524,2.0423793960586187
1761141532787212800,9.075212890625,0.27900632647275925,-0.7391829476315528,2.4182725638344884
1761141532797271800,9.085271728515625,0.1461667127788067,-0.8041581816934049,2.8821210784390567
1761141532807331800,9.095331787109375,0.6374287194877862,-0.7335681034244597,3.306072174680233
1761141532817391900,9.105391845703124,1.4558154791504143,-0.5580202517300844,3.598057517452538
1761141532827451000,9.115450927734376,1.8416688999265431,-0.4230458544971421,3.8227453937605023
1761141532837511000,9.125510986328125,1.7003636557042598,-0.3713022232564166,3.6695872146591544
1761141532847569700,9.135569580078124,1.3408148890078067,-0.3873935994228348,2.7982269896999
1761141532857629700,9.145629638671876,0.6388169589757919,-0.32164252215027805,1.617578551120311
1761141532867689700,9.155689697265625,-0.2771066303312778,-0.10921891060178167,0.5481649204090238
1761141532877748700,9.165748779296875,-1.1025918238222598,0.24384629362849516,-0.10976192230414598
1761141532887808800,9.175808837890624,-1.8130390177696942,0.5290118185844273,0.09017178076915443
1761141532897868800,9.185868896484376,-2.4300959803581237,0.7916244249433279,0.7123144491240382
1761141532907927800,9.195927734375,-2.583471601602435,0.9611100539892912,1.3513041343182324
1761141532917987800,9.20598779296875,-2.334513791912794,1.1296925967156886,1.7886811138436196
1761141532928047900,9.2160478515625,-1.9177046763807535,1.111172605162859,1.9848047205768524
1761141532938107000,9.22610693359375,-1.181940085825324,0.896365267682448,1.9943753897376357
1761141532948167000,9.2361669921875,-0.35922377252578735,0.7290290717553347,1.7211825718492268
1761141532958225700,9.2462255859375,0.2208925756782293,0.5238130078323185,1.441370628082007
1761141532968285700,9.25628564453125,0.5622533592551946,0.2952932252112776,1.0685919390648604
1761141532978346000,9.266345947265625,0.7537199339628219,-0.008037029852718114,0.571924894974567
1761141532988404700,9.27640478515625,1.024873208847642,-0.40583405946604906,-0.024244689342565833
1761141532998464800,9.28646484375,1.3627631014436483,-0.6097844873674213,-0.6974781145200133
1761141533008524800,9.29652490234375,1.6685475447267293,-0.7249800155602395,-1.1381710136603564
1761141533018583800,9.306583740234375,1.951049896621704,-0.7542889660224318,-0.978035177566111
1761141533028643800,9.316643798828125,2.3375860389649867,-0.7540938818417489,-0.5564994353709742
1761141533038703600,9.32670361328125,2.7920974009037014,-0.6669649028345942,-0.43746308690626173
1761141533048763000,9.336762939453125,2.9927684418082237,-0.5418742958322167,-0.38527733792122454
1761141533058823000,9.346822998046875,2.723705417200923,-0.42431466885656116,-0.2081967602342367
1761141533068881700,9.356881591796874,2.0766472841024397,-0.3722270464837551,0.038864568184316155
1761141533078941700,9.366941650390626,1.2927660206317901,-0.35630890799239273,0.1050070376609452
1761141533089002000,9.377001953125,0.4737216738432646,-0.31716786095425487,0.022222700261976567
1761141533099060700,9.387060791015625,-0.22322247993052005,-0.28306042416915295,-0.026653704979363826
1761141533109120800,9.397120849609376,-0.5140279652684927,-0.17648805515393615,-0.24094326566336674
1761141533119180800,9.407180908203125,-0.3227332399964332,0.028019641304016112,-0.3825046948701143
1761141533129239800,9.41723974609375,0.18493220450282097,0.21843962956815957,-0.3076975468954071
1761141533139299800,9.4272998046875,0.8284498885154724,0.5601084561809897,-0.2348619912546128
1761141533149359600,9.437359619140626,1.3543465707540512,0.648956660196185,0.047265613610413856
1761141533159419000,9.4474189453125,1.7250947768568992,0.3837570330187678,0.40570557424817233
1761141533169479000,9.45747900390625,1.9034265601813791,0.11044760301336645,0.49286509452406313
1761141533179537700,9.46753759765625,1.8190759598463773,-0.25616627976372836,0.24915495796324683
1761141533189598000,9.477597900390625,1.5159236186325549,-0.6547751372165977,0.08722021922087296
1761141533199657700,9.48765771484375,1.0456821881204843,-0.6499610149331391,-0.10305449708737432
1761141533209716700,9.497716796875,0.5820914476692676,-0.473829956523329,-0.2729552462728694
1761141533219776800,9.50777685546875,0.3098065384060144,-0.3384169852100313,-0.27300825510174037
1761141533229836800,9.5178369140625,0.31411504925489425,-0.2486041739463806,-0.16187939182594419
1761141533239895800,9.527895751953125,0.4128665153861046,-0.11361030482798815,-0.05804239345821552
1761141533249955800,9.537955810546874,0.4253957420915365,0.02916033577173948,0.019293304879730567
1761141533260015600,9.548015625,0.46477089014649386,-0.002520458388328552,0.20554962499262763
1761141533270075000,9.558074951171875,0.5763058500051498,-0.15144085378944874,0.32905323679819704
1761141533280134700,9.568134765625,0.8669073372036218,-0.2565646314315498,0.21784075035955755
1761141533290194000,9.57819384765625,1.2148270409047603,-0.3281998348392546,0.05605053465440869
1761141533300254000,9.58825390625,1.4507833302021025,-0.47005993646532296,-0.05301070116763003
1761141533310313700,9.598313720703125,1.5313649333924053,-0.6841476544342935,-0.02591641281391494
1761141533320372700,9.608372802734374,1.4582844996124504,-0.76936626977548,0.12536535055683926
1761141533330432800,9.618432861328126,1.206146306321025,-0.5790851054601371,0.2986812054154463
1761141533340492800,9.628492919921875,0.773404877641797,-0.20108575918525456,0.6182064248844981
1761141533350551800,9.6385517578125,0.3353314402848482,-0.03383358827978372,1.0915494746737182
1761141533360611600,9.648611572265626,0.1051484736919403,-0.014885288312286138,1.277334204352647
1761141533370671900,9.658671875,0.029944471886754035,0.03451061075851321,1.1159857045330106
1761141533380731000,9.66873095703125,0.05375555558502674,-0.009137100049108266,0.874794656387344
1761141533390790700,9.678790771484374,0.2791869437366724,-0.1413918995924294,0.6270479760531336
1761141533400850000,9.688849853515626,0.7084101351618767,-0.19774886984750628,0.25379787013195454
1761141533410910000,9.698909912109375,1.1629957313805819,-0.2969843201033771,-0.01599342308412306
1761141533420969700,9.7089697265625,1.3701871139645576,-0.46239437027350067,-0.09881710611279122
1761141533431028700,9.71902880859375,1.468724060562253,-0.5259655096910894,-0.15301508996938354
1761141533441088800,9.7290888671875,1.6137632306158542,-0.5839450396467,-0.11025289329201914
1761141533451148800,9.739148681640625,1.765882714319229,-0.5968403231855481,-0.027288249156391248
1761141533461207800,9.749207763671874,1.968297384020686,-0.5899200224030763,0.03910161921004764
1761141533471267600,9.759267578125,2.147377355363965,-0.5220535238791257,0.09497744575152173
1761141533481326800,9.769326904296875,2.236358538109064,-0.31884142018966377,0.11402642961451784
1761141533491387600,9.7793876953125,2.3209487924188372,-0.29749292721264065,0.258918610679172
1761141533501447400,9.789447509765624,2.415585808968544,-0.41363260438777505,0.46955052563846106
1761141533511506400,9.79950634765625,2.510433837920427,-0.31470125164501367,0.4148088085602969
1761141533521566700,9.809566650390625,2.5998043122440575,-0.11398958646915852,0.2480918039774522
1761141533531626500,9.81962646484375,2.7307120810925958,-0.038018399683758614,0.2209106227915734
1761141533541685500,9.829685546875,2.9393355423063037,-0.022151991379633546,0.21285501610254867
1761141533551745500,9.83974560546875,3.1470939111232754,-0.008687602715939283,0.16115107755139468
1761141533561805600,9.8498056640625,3.2488913208216426,0.000026741876453161238,0.15563045096639544
1761141533571864600,9.859864501953124,3.3349785356909036,0.05763663480207324,0.12241059240447356
1761141533581924400,9.86992431640625,3.265541426849365,0.20429931440427898,0.039417484792764294
1761141533591983600,9.879983642578125,3.0553321577489374,0.1594796372078359,0.09705098235625773
1761141533602043600,9.890043701171875,2.7576374974191187,0.09273067147172986,0.2078636375560425
1761141533612103400,9.900103515625,2.4135388133108613,0.14250731348842383,0.15881578473793342
1761141533622162700,9.91016259765625,2.070182472002506,0.24444734652787445,0.18344642292447388
1761141533632222700,9.92022265625,1.6185931349903344,0.37621129381433127,0.32709658630508925
1761141533642282500,9.930282470703125,1.2056588150650263,0.4535657516516745,0.34080234597660597
1761141533652341500,9.940341552734376,0.9574310732156037,0.5002748227912932,0.15605004635164513
1761141533662401500,9.950401611328125,0.8430278644442558,0.4954119659952819,-0.15174385532401502
1761141533672460500,9.96046044921875,0.7345131291896104,0.2760654507152736,-0.35610637115761634
1761141533682520600,9.9705205078125,0.413182741728425,-0.10374204096011817,-0.2940514632555656
1761141533692580400,9.980580322265626,-0.13889058429598808,-0.3977810283266008,-0.09580372224152088
1761141533702639600,9.9906396484375,-1.0472650733977555,-0.5601975227039308,0.02956477012047544
1761141533712699600,10.00069970703125,-2.271178507077694,-0.5821336793757975,0.027000819650292395
1761141533722759400,10.010759521484376,-3.476732692724466,-0.4666341998003423,-0.06776157684475183
1761141533732818700,10.020818603515625,-4.2971927515298125,-0.24637130032777785,-0.425215344023332
1761141533742878500,10.03087841796875,-4.704435581815242,0.1575507880371064,-1.072730938565731
1761141533752938500,10.0409384765625,-5.023979085859656,0.34006562919989225,-1.381553434370458
1761141533762997500,10.05099755859375,-5.542968472927808,0.4362393537975848,-1.421795574518293
1761141533773057500,10.0610576171875,-6.509944788601994,0.7399947754710913,-1.3697579287670552
1761141533783116500,10.071116455078124,-8.174944869980216,0.9980611897677183,-1.0150383357927202
1761141533793176600,10.081176513671876,-10.423388398158549,1.0632749087605624,-0.5692755129769445
1761141533803236600,10.091236572265625,-12.846975142753124,1.0886023883711546,-0.31739136751182373
1761141533813295600,10.101295654296875,-15.609063189840317,0.9562705780688673,-0.20377024902887642
1761141533823355400,10.11135546875,-18.83448654131293,0.7711129673123359,-0.21601718819420784
1761141533833415400,10.12141552734375,-22.561899629735944,1.0656613655056804,-0.48857287722285836
1761141533843474700,10.131474609375,-26.388916417205333,1.668966500791162,-0.9858226896371692
1761141533853534500,10.141534423828125,-29.12365117794275,2.2166519671201703,-1.0692715188268571
1761141533863594500,10.151594482421874,-29.74498158006668,2.521564303743839,-0.7416017722763121
1761141533873653800,10.16165380859375,-27.899435546445844,2.2792669748567045,-0.2844060300918296
1761141533883713500,10.171713623046875,-23.773784187448022,1.7433632778666912,-0.004504106486216187
1761141533893772500,10.1817724609375,-18.768139799702166,1.2821680542498826,-0.01607475382518023
1761141533903832300,10.191832275390626,-13.719184678018092,0.8696329627752304,0.15131361068058757
1761141533913892600,10.201892578125,-8.66323224479258,0.3185938021041453,0.6342337228387593
1761141533923951600,10.21195166015625,-3.681958328193426,-0.22985753403082487,0.8597400759227574
1761141533934011400,10.222011474609374,1.226901509580016,-0.8818586764894425,1.2091454881370067
1761141533944071400,10.232071533203126,5.509471861517429,-1.3862395463600754,1.515212840014696
1761141533954130700,10.242130615234375,8.268795704588294,-1.1292525247979908,1.139571381977573
1761141533964190500,10.2521904296875,9.209251093083619,-0.5314619151502847,0.13063926323861813
1761141533974249700,10.262249755859376,8.761952731263637,-0.8732048299126327,-1.1125846639178694
1761141533984309500,10.2723095703125,8.392803192529081,-1.8172791395574808,-2.1243368176467716
1761141533994369500,10.28236962890625,9.051481620794535,-2.2513649685829877,-3.530878124409914
1761141534004428500,10.292428466796874,10.936159056842326,-2.6522020234793424,-4.535312648601829
1761141534014488600,10.302488525390626,13.409063082313537,-2.710649536272883,-4.320890145720541
1761141534024548600,10.312548583984375,15.175817903292177,-2.0552441383287308,-3.26056217713207
1761141534034607600,10.322607666015625,15.952341205215452,-1.0654923656143247,-2.0398631754539904
1761141534044667400,10.33266748046875,16.018427250063418,-0.5289439409799873,-0.6072202629026026
1761141534054726700,10.3427265625,15.738369953233002,-0.22760661329887805,0.6948898515924811
1761141534064786400,10.352786376953125,15.35587870236635,-0.046503392499685284,1.6480153365686534
1761141534074846500,10.362846435546874,14.695869317758083,0.14308452885448933,2.120565920805931
1761141534084905700,10.37290576171875,13.712569059270619,0.30417540065124626,2.217822764465213
1761141534094965500,10.382965576171875,12.445249614584446,0.5451784519441425,2.189032431049645
1761141534105025500,10.393025634765625,11.053477276277542,0.9239646377477795,2.1680258833780885
1761141534115084500,10.40308447265625,9.855878433549403,1.152070871131867,2.0621777369841934
1761141534125144600,10.41314453125,9.121559365627169,1.2487751954749227,1.812421032001823
1761141534135204600,10.42320458984375,8.78544583505392,1.3997723971500993,1.3213479719936847
1761141534145263400,10.433263427734374,8.907680468103289,1.3264224987789988,0.8657444309040904
1761141534155323400,10.443323486328126,9.135845665133,1.130061868419498,0.6245533827584236
1761141534165382700,10.453382568359375,9.095486766737698,1.1271594980414956,0.29596955357026306
1761141534175442400,10.4634423828125,8.567695064532757,1.1013954536445438,0.1604528113552369
1761141534185502500,10.47350244140625,7.564475469088554,0.7283265495091676,0.5779863139053806
1761141534195561700,10.483561767578125,6.3304462995857,0.6265964328933507,0.9873781754508614
1761141534205621500,10.49362158203125,5.237804207369685,0.6931577671028674,1.310757896657288
1761141534215681500,10.503681640625,4.509026991483569,0.6849286487441509,1.7227121195040642
1761141534225740500,10.513740478515626,4.209943507143855,0.6284338043883443,2.0865598985686895
1761141534235800600,10.523800537109375,4.374570590242743,0.5770344200080261,2.121276407162845
1761141534245859600,10.533859619140625,5.074648365867137,0.5364260768963024,1.7718175111956893
1761141534255919400,10.54391943359375,6.141787768036127,0.40286509012524035,1.1583093271300196
1761141534265979600,10.553979736328126,7.250693597310781,0.21947441597599535,0.6170667533300817
1761141534276038700,10.56403857421875,8.243131101977825,0.0676995627255179,0.09916843116795644
1761141534286098400,10.574098388671874,9.11398630002439,0.022908472302742303,-0.4450942028392106
1761141534296158500,10.584158447265626,9.80133260436952,0.00014919921234250069,-0.7032885543644428
1761141534306217500,10.594217529296875,10.27290206861496,-0.09793035900667309,-0.7066114151768386
1761141534316277500,10.604277587890625,10.598037693578004,-0.24089294198192654,-0.6413447238877416
1761141534326336500,10.61433642578125,10.969258193367718,-0.4477393105205148,-0.5069655526015907
1761141534336396500,10.624396484375,11.405340749168396,-0.5949991522982716,-0.2903570109181106
1761141534346456600,10.63445654296875,11.305718345421552,-0.5599258661556988,0.02382193388585001
1761141534356515600,10.644515625,10.467501096129416,-0.18014044018164277,0.10351984957680106
1761141534366575400,10.654575439453126,9.253559021365643,0.25090273321233686,-0.19575510221440343
1761141534376635600,10.6646357421875,7.876321988889575,0.3551248858395964,-0.2860512765482068
1761141534386694400,10.6746943359375,6.607831162336469,0.4783881312843412,-0.21375505194850264
1761141534396754400,10.68475439453125,5.2243455908596514,0.7540289999119937,-0.1762893907766789
1761141534406813700,10.694813720703126,3.273713627389073,0.9569180091269314,0.41628567617982626
1761141534416873500,10.70487353515625,0.6554495293468237,1.0734748888008296,1.4798564260818063
1761141534426933500,10.71493359375,-2.299875024729967,1.309920569050312,2.4149380125842987
1761141534436992800,10.72499267578125,-4.883215693429112,0.9440281324155628,3.661611121213436
1761141534447052500,10.735052490234375,-6.974535061484575,-0.25327351746428756,5.524041654139757
1761141534457112600,10.745112548828125,-8.921320286399126,-2.014865512319654,7.34655635626316
1761141534467171300,10.75517138671875,-10.933510003638267,-2.6875933625951407,6.824550251722336
1761141534477231600,10.765231689453126,-13.667345769709348,-2.2442726722344757,3.6858886533796786
1761141534487290600,10.77529052734375,-18.320487217617035,-3.4945582722723483,0.689238620897755
1761141534497351000,10.785350830078125,-23.34672548058033,-4.515335736238956,-3.865493525379896
1761141534507410700,10.79541064453125,-26.79481776975393,-3.1743533817097545,-9.535807690760493
1761141534517470000,10.805469970703125,-27.73196768696308,-0.14159043610552324,-12.397559642648696
1761141534527529700,10.81552978515625,-27.035306441783902,3.1489404157727954,-9.884248787987232
1761141534537589800,10.82558984375,-25.152528701877593,4.690757769596576,-3.0284251538619396
1761141534547649000,10.83564892578125,-22.06108127465248,5.550666626214981,2.7162717600688335
1761141534557708800,10.845708740234375,-19.089818562209604,5.966817570099234,6.01100742495954
1761141534567767800,10.855767822265625,-17.46001955807209,5.790141737288236,7.726027967047691
1761141534577827800,10.865827880859374,-16.82654746725559,5.205348044922948,8.004220054528117
1761141534587887900,10.875887939453126,-15.830082606768608,4.322630851908028,6.413060285386443
1761141534597947000,10.88594677734375,-13.398256441617011,3.2714117801874876,3.8468107444807886
1761141534608006700,10.896006591796874,-9.900113881117106,2.017131995946914,1.5293135538205505
1761141534618066700,10.906066650390626,-5.942734683722257,0.9415070895053446,-0.3972106810927391
1761141534628126000,10.9161259765625,-1.768685496780276,0.148192884844169,-1.5987605995342133
1761141534638185700,10.926185791015625,1.9624211854636668,-0.26517639243230223,-2.0870605415672063
1761141534648244700,10.93624462890625,4.557530033367872,-0.3306611103862524,-1.920542237894237
1761141534658305000,10.946304931640626,5.92426613009572,-0.08128456382788718,-1.2552829699337482
1761141534668364800,10.95636474609375,6.463957528930902,0.289488630585745,-0.4386052792113274
1761141534678423800,10.966423828125,6.510862487968802,0.5838116955906152,0.21056520639862863
1761141534688483800,10.97648388671875,6.3238704283267255,0.7446350024923681,0.48697125071249897
1761141534698543900,10.9865439453125,5.963491640546917,0.6319317295067012,0.1359244644993916
1761141534708603000,10.996602783203125,5.518279437351226,0.30985461533144115,-0.904260550976917
1761141534718662700,11.00666259765625,5.140083837851882,-0.10290727063640952,-2.1312772844344376
1761141534728722000,11.016721923828126,5.045856571146846,-0.2772000077031553,-3.0513720219463107
1761141534738782000,11.026781982421875,5.121033100423216,-0.2825457526452839,-3.4625936927348375
1761141534748841700,11.036841796875,5.190227048158645,-0.24553017332851884,-3.5162948877841234
1761141534758901000,11.04690087890625,5.025554372352361,0.388490929672867,-3.4772914956510066
1761141534768960800,11.056960693359375,4.5390568035662175,1.177620030669123,-3.0889968192026016
1761141534779020800,11.067020751953125,3.9787715295135975,1.652823467502743,-2.3692760393448173
1761141534789079800,11.077079833984374,3.676276775425672,2.1026465254947544,-1.254050505529344
1761141534799139800,11.087139892578126,3.6982694115251302,2.4011197689816353,-0.08376213292255998
1761141534809198800,11.09719873046875,3.0457717177212236,0.8344739711105823,0.10715762155726552
1761141534819259000,11.1072587890625,2.0955758564561604,0.2270060901224613,0.5448148793287575
1761141534829318700,11.117318603515624,1.5109972681462764,0.3411056397721171,0.4921415660224855
1761141534839378000,11.1273779296875,0.6382891357094049,-0.16921762575954197,0.30058110248632725
1761141534849437700,11.137437744140625,-0.629614830866456,-0.44604427010565995,0.4955058548238128
1761141534859497700,11.147497802734375,-1.7986293841451406,-0.11754589071124791,0.3606896072946489
1761141534869557000,11.157556884765626,-2.107967720517516,0.09010989451408385,-0.29133645040951667
1761141534879616800,11.16761669921875,-1.2411825483888388,-0.22861527888476849,-0.6720338766619562
1761141534889675800,11.17767578125,0.3847983587652445,-0.7096312013894319,-0.6691827250145376
1761141534899735800,11.18773583984375,1.5284779797792434,-0.6368403982058167,-0.8987766396731137
1761141534909795800,11.1977958984375,1.4499889649540185,-0.1191410509482026,-1.0792844518624245
1761141534919854800,11.207854736328125,0.5189367800980806,0.6308905498906969,-0.9877997618637978
1761141534929914600,11.21791455078125,-0.3620329847276211,1.3240893796563147,-0.8398096330501139
1761141534939974000,11.227973876953126,-0.5645107827931642,1.577774510128796,-0.5392673282042145
1761141534950034000,11.238033935546875,-0.27672669110298154,1.6101108455881477,-0.2182590123042464
1761141534960093700,11.24809375,0.07299684714972972,1.7674673531621694,0.052601563244313
1761141534970153000,11.258153076171874,0.1778150659739971,1.9758406390070915,0.39053324915543197
1761141534980213000,11.268212890625,0.013453355813026428,1.760729569339752,0.525482256218791
1761141534990272800,11.278272705078125,-0.2948673279494047,1.3553385044008492,0.38158407289385793
1761141535000331800,11.288331787109374,-0.2840045731514692,1.0239406041726469,-0.029979397069662808
1761141535010391800,11.298391845703126,0.09498129994273186,1.1034706524834037,-0.43828211167156694
1761141535020450800,11.308450927734375,0.782970578366518,1.1344435906350612,-0.3547802371203899
1761141535030510800,11.3185107421875,1.4206798683613537,0.5995619301691651,-0.23079554553329942
1761141535040570600,11.328570556640624,2.4297142875641584,0.9550462239056825,-0.10609729884937405
1761141535050630000,11.3386298828125,3.786211898872256,1.569137614686787,0.30911943292468785
1761141535060690000,11.34868994140625,4.1032080565214155,0.5983391103759408,0.32924262189045544
1761141535070749700,11.358749755859375,4.2314585888594385,-0.34658757831454273,0.5720471696473658
1761141535080809000,11.36880908203125,4.2636417795836925,-1.0678498885259031,0.9409608537994325
1761141535090869000,11.378868896484375,4.15532636629343,-1.5527248245462775,0.5195797541767359
1761141535100927700,11.388927734375,3.379593922486901,-1.6666525247603654,-0.46797553140670056
1761141535110987800,11.39898779296875,1.8997440722763537,-1.7855869472205639,-1.4452701197385787
1761141535121047800,11.4090478515625,0.439164155203104,-1.5865245105564594,-2.334952913982421
1761141535131106800,11.41910693359375,-0.4549702116221189,-1.140467673230171,-2.6706834365874528
1761141535141166800,11.429166748046875,-0.685156685346365,-0.682635057914257,-2.2616160212233662
1761141535151225900,11.439225830078126,-0.23585165987908838,0.19605916319489478,-1.7020437177456915
1761141535161286000,11.449285888671875,0.2871516390055418,0.8357489594824612,-1.1113956002637744
1761141535171346000,11.459345947265625,0.4532417803943157,0.9709281220398843,-0.44759895220175383
1761141535181405000,11.469405029296874,0.3495744851708412,0.800841166099906,0.13262268300764263
1761141535191465000,11.47946484375,-0.16946633982360362,0.6757986360229551,0.7385065827399492
1761141535201524700,11.489524658203125,-0.39275077907443046,0.22290873780623077,0.5414052170157432
1761141535211583700,11.499583740234375,-0.6661275752276182,0.011755904245376586,0.20205920732729135
1761141535221644000,11.50964404296875,-0.8136626537501811,-0.10393515237942337,-0.13816986880600451
1761141535231702800,11.519702880859375,-0.723564449673891,-0.20794205482080577,-0.5522674603570252
1761141535241762800,11.5297626953125,-0.4053320282280445,-0.282628608623147,-0.7865192838240415
1761141535251822800,11.53982275390625,0.07487374693751335,-0.39765667129456994,-0.887801145215705
1761141535261881900,11.5498818359375,0.5554261435836553,-0.5117104821063578,-0.8505451812718063
1761141535271942000,11.55994189453125,0.9641098203271626,-0.5273886743620038,-0.6115514239747077
1761141535282001700,11.570001708984375,1.0641513262689113,-0.43182972066178915,-0.22516864556223154
1761141535292061000,11.58006103515625,0.9216893132269381,-0.18145751412957906,0.1982527277164161
1761141535302121000,11.590120849609375,0.8051064223289489,0.13841244539022446,0.4634009900327772
1761141535312179700,11.6001796875,0.6184966400027275,0.2391914718262851,0.5128607481200248
1761141535322240000,11.610239990234374,0.3184387576729059,0.08411927579715847,0.39525026773996647
1761141535332300000,11.620300048828126,0.02603109783530235,-0.17234028782472013,0.1910712187144905
1761141535342358800,11.63035888671875,-0.19758125819563865,-0.12946224621534347,0.011925232930295168
1761141535352418800,11.640418701171875,-0.08477847035825252,0.3011902473606169,0.0527163487304002
1761141535362477800,11.650477783203126,-0.3990577702641487,-0.1753765867806971,0.01989580995067954
1761141535372537900,11.660537841796875,-0.4704951130121946,-0.322005364113301,0.0806629613308236
1761141535382598000,11.670597900390625,-0.31244448569417,-0.1531371363133192,0.14897965130768714
1761141535392657000,11.680656982421874,-0.24933365726470946,-0.11983210195228457,0.12889376214500517
1761141535402717000,11.690717041015626,-0.20417057345807552,-0.03533610179722309,0.0993345632487908
1761141535412775700,11.700775634765625,-0.06405950745642185,0.07468406958431005,0.13070782582964746
1761141535422835700,11.710835693359375,0.10535890157222748,0.0542103136152029,0.19986315858773887
1761141535432896000,11.72089599609375,0.22676526710391043,-0.08534867146164178,0.2565338344344869
1761141535442954800,11.730954833984375,0.3263859172850847,-0.23119404333159327,0.3473052250646054
1761141535453014800,11.741014892578125,0.41130408837497234,-0.3406308618672192,0.3837337617410347
1761141535463074800,11.75107470703125,0.24864918213188647,-0.35055852777212854,0.3980154216043651
1761141535473133800,11.7611337890625,0.012429273462295531,-0.36652225897088647,0.3266366771757602
1761141535483193900,11.77119384765625,-0.21307868705689906,-0.38310251463279127,0.19978709767684338
1761141535493252900,11.7812529296875,-0.3200251500815153,-0.38650779303163285,0.20194785590730607
1761141535503313000,11.79131298828125,-0.33680268188118934,-0.33040845079943537,0.29704766766317187
1761141535513373000,11.801373046875,-0.17837854507565498,-0.22963804606124757,0.436681325411424
1761141535523431700,11.811431640625,0.0007926116824150085,-0.1931618343181908,0.5334086653038859
1761141535533492000,11.821491943359375,0.09884089798033237,-0.11301643058806657,0.5754029098160565
1761141535543550700,11.83155078125,0.18091712364256382,-0.021053455553203818,0.5388933072600514
1761141535553610800,11.84161083984375,0.40587680262923237,-0.02308919916450977,0.35659145126082004
1761141535563670800,11.8516708984375,0.39858839918673034,0.011296470040082931,0.3762991912934929
1761141535573729800,11.861729736328124,0.08123977483808993,-0.05223477575853467,0.5690897811464966
1761141535583789800,11.871789794921876,-0.22580723572671413,-0.18315818056762218,0.5051864871650934
1761141535593849900,11.881849853515625,-0.46443595910370344,-0.18433613830581305,0.3619111119136214
1761141535603908900,11.891908935546875,-0.707325847056508,-0.19582199343815446,0.2612683521430939
1761141535613969000,11.901968994140624,-0.8183464276522397,-0.12704685563668608,0.18679412591718136
1761141535624027600,11.912027587890625,-0.47424423641264435,0.07914163351505994,0.1260896279770881
1761141535634087700,11.922087646484375,0.27357553359568115,0.22625147236287593,0.11797682947441934
1761141535644148000,11.93214794921875,1.0045318470865487,0.22989684312790631,0.22964812906384466
1761141535654206700,11.942206787109376,1.3652818062663077,0.18670491326376795,0.40814014445133506
1761141535664266800,11.952266845703125,1.2050760467410087,0.06820157569721341,0.572687367247045
1761141535674326000,11.962325927734375,0.7810393180429935,0.0512912112981081,0.5159952467534691
1761141535684385800,11.9723857421875,0.30979309440255165,0.13084274078831076,0.34528650565333663
1761141535694445800,11.98244580078125,-0.04146773642003536,0.26098741630986333,0.2845883643887937
1761141535704504800,11.9925048828125,-0.1429419055134058,0.3886944894209504,0.3221389273650944
1761141535714564900,12.00256494140625,0.024191022926568984,0.41677331356629727,0.33826866278052325
1761141535724625000,12.012625,0.29468203451037406,0.3348817968212068,0.318832140904665
1761141535734683600,12.02268359375,0.5873509756326675,0.18873481165617703,0.28695377834588287
1761141535744744000,12.032743896484375,0.5527607237666845,0.19842866880521176,0.4109014989234507
1761141535754803000,12.042802978515626,0.11791560080647467,0.24376550174355505,0.4555170318499207
1761141535764862700,12.05286279296875,-0.229080558308959,0.21931509722843764,0.4191718991406262
1761141535774922800,12.0629228515625,-0.5677957958132028,0.09572232756838202,0.1248198272369802
1761141535784981800,12.072981689453124,-0.4604331532031297,0.004323708418011665,-0.15311989291757344
1761141535795041800,12.083041748046876,-0.04748948092758655,0.03942512467652559,-0.04168459404110908
1761141535805100800,12.093100830078125,0.40829438516497607,-0.12129779059067368,0.020733356753364206
1761141535815160800,12.103160888671875,0.45617958741188047,-0.44004269160330295,-0.141891519677639
1761141535825220900,12.113220947265624,0.6206862590014934,-0.4970493579387664,-0.4215161241792142
1761141535835280000,12.12327978515625,0.7263882749229669,-0.3097448713466525,-0.47127632651776075
