time,seconds_elapsed,z,y,x
1761141523783806700,0.071806640625,-1.3484702110290527,-0.7026182413101196,-0.02274121344089508
1761141523793865700,0.08186572265625,-1.3649612665176392,-0.6893237233161926,-0.03153150901198387
1761141523803925800,0.09192578125,-1.3736871480941772,-0.641450047492981,-0.0330994687974453
1761141523813985800,0.10198583984375,-1.3709275722503662,-0.5631334185600281,-0.038326721638441086
1761141523824045800,0.1120458984375,-1.3667610883712769,-0.4531767666339874,-0.07095184922218323
1761141523834104800,0.122104736328125,-1.3725539445877075,-0.36090517044067383,-0.13570421934127808
1761141523844164900,0.132164794921875,-1.3728716373443604,-0.3184589743614197,-0.234820157289505
1761141523854224600,0.142224609375,-1.363065242767334,-0.30296391248703003,-0.334306001663208
1761141523864284000,0.152283935546875,-1.3365978002548218,-0.2853040397167206,-0.39862918853759766
1761141523874344000,0.162343994140625,-1.3078804016113281,-0.24637022614479065,-0.3819596469402313
1761141523884403700,0.17240380859375,-1.2795778512954712,-0.17487655580043793,-0.27840033173561096
1761141523894463700,0.182463623046875,-1.2497637271881104,-0.08739757537841797,-0.13355739414691925
1761141523904523000,0.19252294921875,-1.2267489433288574,0.0017501916736364365,0.02018950693309307
1761141523914582800,0.202582763671875,-1.2097761631011963,0.11129080504179001,0.11133353412151337
1761141523924642800,0.212642822265625,-1.2115365266799927,0.19450755417346954,0.10828010737895966
1761141523934701600,0.22270166015625,-1.2074332237243652,0.2628661096096039,0.021155592054128647
1761141523944761900,0.232761962890625,-1.202317714691162,0.2972436547279358,-0.10838665813207626
1761141523954822000,0.24282177734375,-1.1795785427093506,0.30685609579086304,-0.24791258573532104
1761141523964880600,0.252880615234375,-1.1453986167907715,0.30472591519355774,-0.3625032305717468
1761141523974940700,0.262940673828125,-1.0813230276107788,0.28315404057502747,-0.39561963081359863
1761141523985001000,0.2730009765625,-0.9999470710754395,0.2523327171802521,-0.3217836916446686
1761141523995060700,0.283060791015625,-0.8998905420303345,0.21436427533626556,-0.14016568660736084
1761141524005119700,0.29311962890625,-0.7942704558372498,0.17438291013240814,0.09945537149906158
1761141524015179800,0.3031796875,-0.7023645043373108,0.1407884657382965,0.3333565592765808
1761141524025239800,0.31323974609375,-0.6296259164810181,0.12922370433807373,0.4778613746166229
1761141524035298800,0.323298828125,-0.5608148574829102,0.11190756410360336,0.4982771575450897
1761141524045358800,0.33335888671875,-0.5111292004585266,0.06850191205739975,0.4006263017654419
1761141524055418600,0.343418701171875,-0.4609251618385315,0.05642367899417877,0.24371710419654846
1761141524065478000,0.353477783203125,-0.40814119577407837,0.054397158324718475,0.08833074569702148
1761141524075537700,0.36353759765625,-0.360723078250885,0.05417744815349579,-0.04304539039731026
1761141524085597700,0.37359765625,-0.3236473798751831,0.049758780747652054,-0.13675250113010406
1761141524095657700,0.38365771484375,-0.2871197462081909,0.030752599239349365,-0.18348431587219238
1761141524105716700,0.393716796875,-0.25527259707450867,-0.010391907766461372,-0.1886500120162964
1761141524115776800,0.40377685546875,-0.2351454645395279,-0.06055520847439766,-0.1670251488685608
1761141524125836800,0.4138369140625,-0.22351929545402527,-0.12342891097068787,-0.13013935089111328
1761141524135895800,0.423895751953125,-0.22045932710170746,-0.2018001526594162,-0.08881162106990814
1761141524145955800,0.433955810546875,-0.2290917932987213,-0.26835161447525024,-0.07409846037626266
1761141524156015900,0.444015869140625,-0.24975553154945374,-0.3114495575428009,-0.09464980661869049
1761141524166075000,0.454074951171875,-0.2837046682834625,-0.32066652178764343,-0.12942947447299957
1761141524176135000,0.464135009765625,-0.29266273975372314,-0.25284114480018616,-0.15477557480335236
1761141524186195000,0.47419482421875,-0.37012428045272827,-0.2528719902038574,-0.16344289481639862
1761141524196254700,0.484254638671875,-0.3978371322154999,-0.18713237345218658,-0.1572805941104889
1761141524206313700,0.494313720703125,-0.4073174297809601,-0.1257215291261673,-0.11825643479824066
1761141524216373800,0.504373779296875,-0.4338819086551666,-0.09401819109916687,-0.04676095396280289
1761141524226433800,0.514433837890625,-0.4544583857059479,-0.07217381149530411,0.028192410245537758
1761141524236492800,0.524492919921875,-0.4616502523422241,-0.07525801658630371,0.094428151845932
1761141524246552800,0.534552734375,-0.4643406867980957,-0.10453857481479645,0.14974108338356018
1761141524256612900,0.54461279296875,-0.4546566307544708,-0.13502803444862366,0.19574585556983948
1761141524266671900,0.554671875,-0.43955427408218384,-0.1712774932384491,0.2206510752439499
1761141524276731600,0.564731689453125,-0.4629450738430023,-0.2089838683605194,0.20487983524799347
1761141524286791700,0.574791748046875,-0.47689351439476013,-0.25607696175575256,0.17280013859272003
1761141524296852000,0.58485205078125,-0.4966488480567932,-0.30853456258773804,0.16300076246261597
1761141524306910700,0.59491064453125,-0.5693849325180054,-0.35458290576934814,0.17471225559711456
1761141524316970800,0.604970703125,-0.6632776260375977,-0.37854868173599243,0.18882568180561066
1761141524327030800,0.61503076171875,-0.8205679059028625,-0.4549553096294403,0.19766514003276825
1761141524337089800,0.62508984375,-0.9267268180847168,-0.3789111375808716,0.20114801824092865
1761141524347149800,0.63514990234375,-0.932125985622406,-0.29599642753601074,0.18312476575374603
1761141524357209600,0.645209716796875,-0.9096577167510986,-0.2363714724779129,0.16764381527900696
1761141524367268900,0.655268798828125,-0.8988693356513977,-0.24063605070114136,0.1611851006746292
1761141524377329000,0.665328857421875,-0.9106085300445557,-0.2619602680206299,0.10921964049339294
1761141524387388700,0.675388671875,-0.8992030024528503,-0.37110865116119385,0.046952247619628906
1761141524397448700,0.68544873046875,-0.937415361404419,-0.5188600420951843,-0.0693349540233612
1761141524407508000,0.695508056640625,-1.0014159679412842,-0.6520463824272156,-0.17886021733283997
1761141524417567700,0.705567626953125,-1.059653639793396,-0.6320401430130005,-0.28438103199005127
1761141524427627800,0.715627685546875,-1.151464819908142,-0.5067657828330994,-0.3768724203109741
1761141524437686800,0.725686767578125,-1.171177864074707,-0.3809026777744293,-0.36389750242233276
1761141524447746800,0.735746826171875,-1.1254793405532837,-0.20466561615467072,-0.24507538974285126
1761141524457806800,0.745806884765625,-1.0896581411361694,0.004480947274714708,-0.09478815644979477
1761141524467867000,0.755866943359375,-1.0899319648742676,0.17323638498783112,0.0785643681883812
1761141524477926000,0.76592578125,-1.1172397136688232,0.18164078891277313,0.30216658115386963
1761141524487985400,0.7759853515625,-1.1361491680145264,0.06612567603588104,0.545744776725769
1761141524498045400,0.78604541015625,-1.1365907192230225,0.10368955880403519,0.6999217867851257
1761141524508104400,0.7961044921875,-1.1005076169967651,0.24549569189548492,0.7610570788383484
1761141524518164500,0.80616455078125,-1.0746618509292603,0.3932545483112335,0.7617281675338745
1761141524528224500,0.816224609375,-1.0899912118911743,0.35693472623825073,0.7808863520622253
1761141524538283300,0.826283203125,-1.0347180366516113,0.148044615983963,0.7842984199523926
1761141524548343300,0.83634326171875,-0.9995914697647095,-0.42664241790771484,0.7302996516227722
1761141524558403600,0.846403564453125,-1.1426194906234741,-1.2993266582489014,0.5885153412818909
1761141524568462300,0.85646240234375,-1.4393051862716675,-2.051295042037964,0.3469805419445038
1761141524578522400,0.8665224609375,-1.7533880472183228,-2.544402599334717,0.009180126711726189
1761141524588582400,0.87658251953125,-1.9853699207305908,-3.130277395248413,-0.3611789047718048
1761141524598642400,0.886642333984375,-2.0571908950805664,-3.5501928329467773,-0.6960405707359314
1761141524608701400,0.896701416015625,-2.0014917850494385,-3.556016683578491,-0.9336822032928467
1761141524618761500,0.906761474609375,-1.9445680379867554,-3.385625123977661,-0.9320198893547058
1761141524628821200,0.9168212890625,-1.8596307039260864,-3.242689371109009,-0.6095994710922241
1761141524638880500,0.926880615234375,-1.752286672592163,-2.5926101207733154,-0.06575001031160355
1761141524648940500,0.9369404296875,-1.4866955280303955,-1.7874311208724976,0.6995126008987427
1761141524659000300,0.947000244140625,-1.2172962427139282,-0.43381887674331665,1.6184654235839844
1761141524669059600,0.9570595703125,-0.9067304730415344,0.6475549936294556,2.5218818187713623
1761141524679119400,0.967119384765625,-0.5143376588821411,1.2060174942016602,3.170010805130005
1761141524689179400,0.977179443359375,-0.041125908493995667,0.9710734486579895,3.332521438598633
1761141524699239400,0.987239501953125,0.3126966059207916,1.1568472385406494,3.1456217765808105
1761141524709298400,0.99729833984375,0.3599162697792053,1.4429914951324463,2.6323883533477783
1761141524719358500,1.0073583984375,0.22504234313964844,1.9206056594848633,1.8825377225875854
1761141524729418500,1.01741845703125,-0.05251621454954147,2.4472579956054688,1.1622487306594849
1761141524739477500,1.0274775390625,-0.2764965891838074,2.7716755867004395,0.41011160612106323
1761141524749537500,1.03753759765625,-0.29831594228744507,3.1104540824890137,-0.3174261152744293
1761141524759597600,1.04759765625,-0.13323162496089935,3.3513386249542236,-1.0266286134719849
1761141524769656300,1.05765625,0.21944859623908997,3.1180062294006348,-1.7013881206512451
1761141524779716600,1.067716552734375,0.521411120891571,2.5286757946014404,-2.088653326034546
1761141524789776600,1.077776611328125,0.681572437286377,1.8959112167358398,-2.081265449523926
1761141524799836400,1.08783642578125,0.7718940377235413,1.2695554494857788,-1.6604183912277222
1761141524809895400,1.0978955078125,0.8283421397209167,0.6076324582099915,-0.8340451121330261
1761141524819955500,1.10795556640625,0.8308079838752747,0.2304353266954422,0.19372306764125824
1761141524830015500,1.118015380859375,0.8830472826957703,0.1784234493970871,1.0795055627822876
1761141524840074500,1.128074462890625,0.9523290991783142,0.32463338971138,1.7168954610824585
1761141524850134300,1.13813427734375,0.7088543772697449,0.2614305019378662,2.322876214981079
1761141524860194600,1.148194580078125,0.47012221813201904,-0.3027351498603821,2.7853872776031494
1761141524870253600,1.158253662109375,0.34012076258659363,-1.062774658203125,2.675239324569702
1761141524880313300,1.168313232421875,0.2895667552947998,-1.7339231967926025,1.878028392791748
1761141524890373400,1.178373291015625,0.276971697807312,-2.174320697784424,0.6253586411476135
1761141524900433700,1.18843359375,0.23713907599449158,-2.0955018997192383,-0.7225435972213745
1761141524910492400,1.198492431640625,0.143630251288414,-1.8785375356674194,-2.0328190326690674
1761141524920552400,1.208552490234375,0.12423125654459,-1.8056219816207886,-2.743549108505249
1761141524930612500,1.218612548828125,0.017222080379724503,-1.690767765045166,-2.992877244949341
1761141524940671500,1.22867138671875,-0.09716121852397919,-1.569809079170227,-2.851614236831665
1761141524950731500,1.2387314453125,-0.20918716490268707,-1.26215398311615,-2.361069440841675
1761141524960791300,1.248791259765625,-0.26418063044548035,-0.7949862480163574,-1.6101930141448975
1761141524970850600,1.2588505859375,-0.2873300611972809,-0.3487527072429657,-0.727979838848114
1761141524980910600,1.26891064453125,-0.33586058020591736,0.024469595402479172,0.04887539520859718
1761141524990970400,1.278970458984375,-0.39649736881256104,0.35740211606025696,0.5382348895072937
1761141525001029400,1.289029296875,-0.37641897797584534,0.5824130773544312,0.7076209783554077
1761141525011089700,1.299089599609375,-0.2865689992904663,0.698600709438324,0.6070134043693542
1761141525021149400,1.3091494140625,-0.17487043142318726,0.732822060585022,0.3222641944885254
1761141525031209500,1.31920947265625,-0.03748523071408272,0.721449613571167,-0.04480672627687454
1761141525041268200,1.329268310546875,0.1274760365486145,0.688493013381958,-0.4143102169036865
1761141525051328500,1.33932861328125,0.27007022500038147,0.7404731512069702,-0.7185530066490173
1761141525061388500,1.349388427734375,0.3748706579208374,0.8793178200721741,-0.9347119331359863
1761141525071447300,1.359447265625,0.4654172956943512,0.9825329780578613,-1.0474501848220825
1761141525081507300,1.36950732421875,0.5458159446716309,1.0119422674179077,-1.0522292852401733
1761141525091567600,1.379567626953125,0.5984393954277039,0.9920487999916077,-0.9427196383476257
1761141525101626400,1.38962646484375,0.5820737481117249,0.9295300245285034,-0.7619908452033997
1761141525111686400,1.399686279296875,0.5675806403160095,0.8513901233673096,-0.560508131980896
1761141525121746400,1.409746337890625,0.5954194664955139,0.7828108072280884,-0.35005131363868713
1761141525131805400,1.419805419921875,0.5947120785713196,0.7356097102165222,-0.20403826236724854
1761141525141865500,1.429865478515625,0.5823894143104553,0.7788623571395874,-0.10212256014347076
1761141525151925500,1.439925537109375,0.5883376598358154,0.8200103640556335,-0.06266506016254425
1761141525161985300,1.4499853515625,0.6347326040267944,0.7310280203819275,-0.06938475370407104
1761141525172044500,1.46004443359375,0.6845018863677979,0.46520018577575684,-0.1111469566822052
1761141525182104300,1.470104248046875,0.6991876363754272,0.16937944293022156,-0.16800864040851593
1761141525192164400,1.480164306640625,0.7358106374740601,0.015957821160554886,-0.2549637258052826
1761141525202223600,1.4902236328125,0.7962141036987305,-0.10413050651550293,-0.38945338129997253
1761141525212283400,1.500283447265625,0.8531139492988586,-0.25091519951820374,-0.5674675107002258
1761141525222343400,1.510343505859375,1.0010969638824463,-0.22963547706604004,-1.223314642906189
1761141525232402700,1.520402587890625,1.0012439489364624,-0.24414758384227753,-1.8334753513336182
1761141525242462500,1.53046240234375,0.998498797416687,-0.3159562647342682,-2.350290536880493
1761141525252522500,1.5405224609375,0.7185112833976746,-0.49596136808395386,-2.4251272678375244
1761141525262582500,1.55058251953125,0.5670442581176758,-0.5751264691352844,-1.8914616107940674
1761141525272641500,1.5606416015625,0.8879057765007019,-0.36360877752304077,-1.486419916152954
1761141525282701600,1.57070166015625,1.08394455909729,0.25145280361175537,-2.09801983833313
1761141525292761600,1.58076171875,1.0832840204238892,0.8719781637191772,-3.437209129333496
1761141525302820400,1.5908203125,1.2005006074905396,0.8527336120605469,-3.817065477371216
1761141525312880600,1.600880615234375,1.1096699237823486,0.7749793529510498,-2.7451751232147217
1761141525322940400,1.6109404296875,1.1104751825332642,0.9258623719215393,-1.1927118301391602
1761141525332999400,1.62099951171875,1.166276454925537,0.867608904838562,0.010730885900557041
1761141525343059500,1.6310595703125,1.0031099319458008,0.505912721157074,0.5113721489906311
1761141525353119500,1.641119384765625,0.6120152473449707,-0.09465044736862183,0.46827465295791626
1761141525363178500,1.651178466796875,0.023074213415384293,-0.9187794923782349,0.09687364846467972
1761141525373238500,1.661238525390625,-0.603088915348053,-1.692365288734436,-0.41395485401153564
1761141525383298300,1.67129833984375,-1.1257894039154053,-2.1739296913146973,-0.6926056146621704
1761141525393358600,1.681358642578125,-1.6215217113494873,-2.454136848449707,-0.5132876634597778
1761141525403417300,1.691417236328125,-1.8301265239715576,-2.341313362121582,-0.017723448574543
1761141525413477400,1.701477294921875,-1.801363229751587,-1.6954420804977417,0.6353983879089355
1761141525423537400,1.711537353515625,-1.6612316370010376,-1.0896823406219482,1.2914398908615112
1761141525433596400,1.721596435546875,-1.5229419469833374,-0.5612148642539978,1.8396906852722168
1761141525443656400,1.731656494140625,-1.4181897640228271,-0.13870756328105927,2.1257436275482178
1761141525453716500,1.741716552734375,-1.3454961776733398,0.3346233069896698,2.114988327026367
1761141525463775500,1.751775390625,-1.2585266828536987,0.746788740158081,1.8436095714569092
1761141525473835500,1.76183544921875,-1.0953559875488281,0.9652367830276489,1.4744510650634766
1761141525483895300,1.771895263671875,-0.970061182975769,1.1415495872497559,1.0567576885223389
1761141525493954300,1.781954345703125,-0.9220800399780273,1.216581106185913,0.5388373732566833
1761141525504014300,1.792014404296875,-0.8556352257728577,1.0608463287353516,0.08762705326080322
1761141525514074400,1.802074462890625,-0.6915555596351624,0.695993185043335,-0.23306353390216827
1761141525524134400,1.812134521484375,-0.44708913564682007,0.3199197053909302,-0.4217357039451599
1761141525534193200,1.822193115234375,-0.18655358254909515,0.0785285234451294,-0.48823320865631104
1761141525544253400,1.83225341796875,-0.0011285943910479546,-0.03738103434443474,-0.5014835000038147
1761141525554313200,1.842313232421875,0.12028724700212479,0.005770768504589796,-0.5298658609390259
1761141525564372200,1.852372314453125,0.14059384167194366,-0.07528360188007355,-0.5057080984115601
1761141525574432300,1.862432373046875,0.1793810874223709,-0.13899457454681396,-0.4543744623661041
1761141525584492300,1.8724921875,0.2638661563396454,-0.27773141860961914,-0.4241420030593872
1761141525594551300,1.88255126953125,0.425563782453537,-0.3936213254928589,-0.3128468990325928
1761141525604611300,1.892611328125,0.3939475417137146,-0.23458828032016754,-0.26320770382881165
1761141525614671000,1.902671142578125,0.27420738339424133,0.018043849617242813,-0.21156923472881317
1761141525624730400,1.91273046875,0.1634659618139267,0.18536759912967682,-0.24798476696014404
1761141525634790100,1.9227900390625,0.048988670110702515,0.25316208600997925,-0.42719924449920654
1761141525644850200,1.93285009765625,0.009332068264484406,0.33854225277900696,-0.6852568984031677
1761141525654909400,1.942909423828125,0.07576174288988113,0.5181154012680054,-0.796133279800415
1761141525664969200,1.95296923828125,0.15478704869747162,0.6867132186889648,-0.6432608962059021
1761141525675029200,1.963029296875,0.21711385250091553,0.8293991684913635,-0.3360108733177185
1761141525685089300,1.97308935546875,0.24982306361198425,0.8706483840942383,-0.011753705330193043
1761141525695148300,1.983148193359375,0.26435938477516174,0.8063748478889465,0.2726820409297943
1761141525705208300,1.993208251953125,0.2711794674396515,0.6421574354171753,0.4804472029209137
1761141525715268400,2.003268310546875,0.2906535863876343,0.34905630350112915,0.5529685616493225
1761141525725327400,2.013327392578125,0.3074227273464203,0.035754840821027756,0.4748830497264862
1761141525735387400,2.023387451171875,0.34552428126335144,-0.2346223145723343,0.24115633964538574
1761141525745447400,2.033447509765625,0.42612138390541077,-0.48608946800231934,-0.010387212038040161
1761141525755506200,2.043506103515625,0.5001292824745178,-0.6596920490264893,-0.21744966506958008
1761141525765566500,2.05356640625,0.5410996079444885,-0.7124495506286621,-0.3496742844581604
1761141525775626200,2.063626220703125,0.5646554827690125,-0.6806141138076782,-0.39372503757476807
1761141525785685200,2.073685302734375,0.551088273525238,-0.5919007658958435,-0.385693222284317
1761141525795745300,2.083745361328125,0.5117948055267334,-0.6003186106681824,-0.2913118898868561
1761141525805805300,2.093805419921875,0.4299558699131012,-0.6108061671257019,-0.20955868065357208
1761141525815864300,2.1038642578125,0.31015172600746155,-0.6137425303459167,-0.23564434051513672
1761141525825924400,2.11392431640625,0.20676995813846588,-0.6525083184242249,-0.33196473121643066
1761141525835984100,2.123984130859375,0.09086259454488754,-0.7042466998100281,-0.5081653594970703
1761141525846044400,2.13404443359375,-0.026167089119553566,-0.7076392769813538,-0.7439208626747131
1761141525856103200,2.144103271484375,-0.09865302592515945,-0.6500921249389648,-0.944913923740387
1761141525866163200,2.1541630859375,-0.1187652125954628,-0.5020291209220886,-1.0243867635726929
1761141525876223200,2.16422314453125,-0.11144877970218658,-0.2847875654697418,-0.9672533273696899
1761141525886282200,2.1742822265625,-0.1478499323129654,-0.010908076539635658,-0.789411187171936
1761141525896342300,2.18434228515625,-0.1876346319913864,0.27814850211143494,-0.5014312863349915
1761141525906402300,2.19440234375,-0.24152129888534546,0.42365217208862305,-0.18918311595916748
1761141525916461300,2.20446142578125,-0.26439329981803894,0.4440860450267792,0.02953208237886429
1761141525926521300,2.214521240234375,-0.2675834894180298,0.40856531262397766,0.12371451407670975
1761141525936581400,2.224581298828125,-0.2726501524448395,0.33032751083374023,0.13082462549209595
1761141525946640100,2.23464013671875,-0.2767963707447052,0.22831985354423523,0.09311742335557938
1761141525956700400,2.244700439453125,-0.2741481363773346,0.1626116782426834,0.01576804183423519
1761141525966760400,2.254760498046875,-0.24979537725448608,0.11025287210941315,-0.09970822185277939
1761141525976819200,2.264819091796875,-0.20693831145763397,0.031005308032035828,-0.21818242967128754
1761141525986879200,2.274879150390625,-0.17064234614372253,-0.03384745493531227,-0.2868579030036926
1761141525996939300,2.284939208984375,-0.15743374824523926,-0.10294994711875916,-0.290845662355423
1761141526006999300,2.294999267578125,-0.15142591297626495,-0.16478295624256134,-0.26914647221565247
1761141526017058300,2.305058349609375,-0.14379791915416718,-0.19113563001155853,-0.247153177857399
1761141526027118000,2.3151181640625,-0.13755492866039276,-0.19007916748523712,-0.22709931433200836
1761141526037178400,2.325178466796875,-0.14585235714912415,-0.19534096121788025,-0.2109522968530655
1761141526047237400,2.3352373046875,-0.1643458902835846,-0.2229291796684265,-0.17679032683372498
1761141526057297200,2.345297119140625,-0.1905590146780014,-0.23027454316616058,-0.13764597475528717
1761141526067357200,2.355357177734375,-0.202133908867836,-0.22575250267982483,-0.09757816791534424
1761141526077416200,2.365416259765625,-0.1903248429298401,-0.22275304794311523,-0.05550691485404968
1761141526087476200,2.375476318359375,-0.15304112434387207,-0.16241353750228882,-0.00296301138587296
1761141526097536300,2.385536376953125,-0.11093351989984512,-0.07137800008058548,0.06488516926765442
1761141526107595300,2.39559521484375,-0.07884375751018524,0.003511948511004448,0.1266966015100479
1761141526117655300,2.4056552734375,-0.05566772446036339,0.06474532932043076,0.18137630820274353
1761141526127715300,2.41571533203125,-0.04858584329485893,0.11455310136079788,0.2200310379266739
1761141526137774300,2.4257744140625,-0.05298145115375519,0.12576615810394287,0.2521887421607971
1761141526147834400,2.43583447265625,-0.07617998123168945,0.11955805122852325,0.2947300970554352
1761141526157894400,2.445894287109375,-0.10050494968891144,0.13322824239730835,0.3739435374736786
1761141526167954200,2.4559541015625,-0.15397509932518005,0.12128209322690964,0.46277379989624023
1761141526178013400,2.466013427734375,-0.1767733246088028,0.03145177662372589,0.5629218816757202
1761141526188073500,2.476073486328125,-0.1609078049659729,-0.09335459768772125,0.6618064045906067
1761141526198133200,2.48613330078125,-0.1270667314529419,-0.18957170844078064,0.6959165930747986
1761141526208192300,2.496192138671875,-0.07241574674844742,-0.22003987431526184,0.5973622798919678
1761141526218252300,2.506252197265625,-0.017757052555680275,-0.18748536705970764,0.36261460185050964
1761141526228312300,2.516312255859375,0.05249260738492012,-0.09698555618524551,0.09967644512653351
1761141526238371300,2.526371337890625,0.13999009132385254,-0.028809022158384323,-0.112627774477005
1761141526248431000,2.53643115234375,0.22185859084129333,0.09449933469295502,-0.14672662317752838
1761141526258491400,2.546491455078125,0.2584415078163147,0.2944543957710266,0.03932958468794823
1761141526268550400,2.55655029296875,0.2204592227935791,0.3507983684539795,0.3050385117530823
1761141526278610200,2.566610107421875,0.14988327026367188,0.2881328761577606,0.46657058596611023
1761141526288670200,2.576670166015625,0.09668663144111633,0.20009972155094147,0.48911237716674805
1761141526298729200,2.586729248046875,0.08263706415891647,0.16632184386253357,0.5092805624008179
1761141526308789200,2.596789306640625,0.08311963081359863,0.1481926441192627,0.6064659357070923
1761141526318849300,2.606849365234375,0.08216667920351028,0.08955790847539902,0.6020283102989197
1761141526328909300,2.616909423828125,0.10741930454969406,-0.004335297737270594,0.3861205577850342
1761141526338968300,2.62696826171875,0.1375158727169037,-0.07701795548200607,0.06096696853637695
1761141526349028400,2.6370283203125,0.16377437114715576,-0.20928198099136353,-0.1555379033088684
1761141526359088000,2.647088134765625,0.1993526965379715,-0.3385058343410492,-0.29438820481300354
1761141526369147400,2.6571474609375,0.18325574696063995,-0.3347640931606293,-0.46232205629348755
1761141526379207400,2.66720751953125,0.10436185449361801,-0.3138629198074341,-0.6632940173149109
1761141526389267200,2.67726708984375,0.034517522901296616,-0.21636724472045898,-0.7682678699493408
1761141526399326200,2.687326171875,-0.0753038302063942,-0.1762719750404358,-0.580115020275116
1761141526409386500,2.697386474609375,-0.21840134263038635,-0.11738070100545883,-0.08484964817762375
1761141526419446300,2.7074462890625,-0.3088347613811493,-0.03365471586585045,0.5713164210319519
1761141526429505300,2.71750537109375,-0.2873227894306183,0.16628503799438477,1.2162275314331055
1761141526439565000,2.72756494140625,-0.13759155571460724,0.37334516644477844,1.698655128479004
1761141526449625300,2.737625244140625,-0.05280422046780586,0.5308802127838135,1.9553121328353882
1761141526459684400,2.747684326171875,-0.04907412827014923,0.5661531686782837,1.936133861541748
1761141526469744000,2.757744140625,-0.05664336308836937,0.44990912079811096,1.6977108716964722
1761141526479804200,2.76780419921875,-0.08569630235433578,0.11196702718734741,1.275098443031311
1761141526489863400,2.777863525390625,-0.08606275171041489,0.21563349664211273,0.687146782875061
1761141526499923200,2.787923095703125,-0.18906795978546143,-0.053972166031599045,0.03627704083919525
1761141526509983200,2.797983154296875,-0.1840023547410965,-0.4215725362300873,-0.520634114742279
1761141526520043300,2.808043212890625,-0.2043081670999527,-0.5066613554954529,-1.0347685813903809
1761141526530102300,2.818102294921875,-0.22893095016479492,-0.4820353388786316,-1.441827654838562
1761141526540162300,2.828162353515625,-0.23502956330776215,-0.42520591616630554,-1.686631679534912
1761141526550222300,2.838222412109375,-0.2442384958267212,-0.3681735396385193,-1.7060741186141968
1761141526560281300,2.84828125,-0.243852436542511,-0.19920465350151062,-1.4849413633346558
1761141526570341400,2.85834130859375,-0.24602530896663666,-0.06616031378507614,-1.0618113279342651
1761141526580401200,2.868401123046875,-0.21984052658081055,0.05164214223623276,-0.5575191974639893
1761141526590460400,2.87846044921875,-0.15354512631893158,0.14730475842952728,-0.10478982329368591
1761141526600520400,2.8885205078125,-0.07261375337839127,0.1704941838979721,0.21575096249580383
1761141526610580200,2.898580322265625,0.0022061639465391636,0.16194942593574524,0.3920780420303345
1761141526620639200,2.90863916015625,0.042929936200380325,0.09775683283805847,0.4727853536605835
1761141526630699500,2.918699462890625,0.05932408943772316,0.005146476440131664,0.47903206944465637
1761141526640759300,2.92875927734375,0.04458796977996826,-0.13354770839214325,0.4509979486465454
1761141526650818300,2.938818359375,0.020284758880734444,-0.2557724118232727,0.3789730370044708
1761141526660878000,2.948878173828125,-0.012396169826388359,-0.34261709451675415,0.27179738879203796
1761141526670938400,2.9589384765625,-0.05867232009768486,-0.4133807420730591,0.16951149702072144
1761141526680997400,2.968997314453125,-0.10585463792085648,-0.47153711318969727,0.10785190016031265
1761141526691057200,2.97905712890625,-0.1397034227848053,-0.4883999824523926,0.08781986683607101
1761141526701117200,2.9891171875,-0.16203388571739197,-0.4275415539741516,0.09798256307840347
1761141526711176400,2.999176513671875,-0.16557028889656067,-0.31964144110679626,0.14600655436515808
1761141526721236200,3.009236328125,-0.16388718783855438,-0.18197093904018402,0.22950221598148346
1761141526731296300,3.019296142578125,-0.14914526045322418,-0.02385878562927246,0.32117223739624023
1761141526741356300,3.029356201171875,-0.126583993434906,0.12008770555257797,0.3948711156845093
1761141526751415300,3.039415283203125,-0.09343988448381424,0.1774362176656723,0.4096945524215698
1761141526761475300,3.049475341796875,-0.037543509155511856,0.19421961903572083,0.3582269549369812
1761141526771535400,3.059535400390625,0.028548425063490868,0.09663421660661697,0.2459680587053299
1761141526781594400,3.069594482421875,0.08658512681722641,-0.14069713652133942,0.08328346163034439
1761141526791654400,3.079654296875,0.17405931651592255,-0.4432423710823059,-0.1203591451048851
1761141526801714200,3.089714111328125,0.31509143114089966,-0.6909316778182983,-0.24880585074424744
1761141526811773200,3.099773193359375,0.41161662340164185,-0.7929749488830566,-0.22734476625919342
1761141526821833500,3.10983349609375,0.3722986876964569,-0.6723960041999817,-0.12770229578018188
1761141526831893200,3.119893310546875,0.05781613662838936,-0.47698813676834106,-0.10838773101568222
1761141526841952300,3.1299521484375,-0.3879062533378601,-0.2937847077846527,-0.06643873453140259
1761141526852012300,3.14001220703125,-0.5783216953277588,-0.07851926982402802,0.025951646268367767
1761141526862072300,3.150072265625,-0.49040496349334717,-0.05238990858197212,-0.06058952957391739
1761141526872131300,3.16013134765625,-0.42196890711784363,0.029011473059654236,-0.6524997353553772
1761141526882191000,3.170191162109375,-0.38530388474464417,0.15828561782836914,-1.6161925792694092
1761141526892251100,3.180251220703125,-0.028336171060800552,0.09889313578605652,-2.2322957515716553
1761141526902310400,3.190310302734375,0.419795423746109,-0.1258772909641266,-1.3813698291778564
1761141526912370200,3.2003701171875,0.7075212597846985,-0.1532394140958786,0.08597490191459656
1761141526922430200,3.21043017578125,0.5986871719360352,-0.2515065670013428,1.0427788496017456
1761141526932490200,3.220490234375,0.3469401001930237,0.0007014423608779907,1.2680902481079102
1761141526942549200,3.23054931640625,0.27303004264831543,0.2719501554965973,0.9348852038383484
1761141526952609300,3.240609375,0.2342861145734787,0.36594003438949585,0.3436990976333618
1761141526962669300,3.25066943359375,0.3192143142223358,0.43808236718177795,-0.29639527201652527
1761141526972728300,3.260728271484375,0.3109944462776184,0.4038495719432831,-0.7402238249778748
1761141526982788400,3.270788330078125,0.22084690630435944,0.44200748205184937,-0.8847314715385437
1761141526992848400,3.280848388671875,0.21341349184513092,0.5822575092315674,-0.7208453416824341
1761141527002907400,3.290907470703125,0.08972309529781342,0.7751775979995728,-0.37601545453071594
1761141527012967400,3.300967529296875,0.012945756316184998,0.8416857719421387,-0.009362642653286457
1761141527023027200,3.311027099609375,-0.038973912596702576,0.8840926289558411,0.3075031638145447
1761141527033086200,3.321086181640625,-0.09520629048347473,0.8827735781669617,0.48057401180267334
1761141527043146500,3.331146484375,-0.14280283451080322,0.7787374258041382,0.527300238609314
1761141527053206300,3.341206298828125,-0.17076043784618378,0.5636805295944214,0.49923211336135864
1761141527063265300,3.351265380859375,-0.23646223545074463,0.3333680033683777,0.41470828652381897
1761141527073325300,3.3613251953125,-0.3409343361854553,0.13187533617019653,0.31310978531837463
1761141527083385300,3.37138525390625,-0.45256760716438293,-0.004662309307605028,0.21900783479213715
1761141527093444400,3.3814443359375,-0.535772979259491,-0.0034505710937082767,0.09896612167358398
1761141527103504100,3.391504150390625,-0.6068283319473267,-0.11488057672977448,0.03201340138912201
1761141527113564200,3.401564208984375,-0.6210485696792603,-0.21841920912265778,0.03687473386526108
1761141527123623400,3.41162353515625,-0.5988856554031372,-0.22484557330608368,0.06936844438314438
1761141527133683200,3.42168310546875,-0.5596972107887268,-0.15369044244289398,0.12778913974761963
1761141527143743200,3.4317431640625,-0.5273717045783997,-0.024726660922169685,0.2431250363588333
1761141527153802500,3.441802490234375,-0.48967331647872925,0.018918819725513458,0.4366188645362854
1761141527163862300,3.4518623046875,-0.5330466032028198,0.05417589843273163,0.566864013671875
1761141527173922300,3.46192236328125,-0.5789616703987122,-0.03583068773150444,0.6569467782974243
1761141527183981000,3.47198095703125,-0.5749013423919678,-0.11185309290885925,0.6812406778335571
1761141527194041300,3.482041259765625,-0.5134392976760864,-0.13226409256458282,0.6173247694969177
1761141527204101400,3.492101318359375,-0.41583558917045593,-0.1301974356174469,0.48341965675354004
1761141527214161400,3.502161376953125,-0.2922542691230774,-0.16664040088653564,0.2810649573802948
1761141527224220200,3.51222021484375,-0.19259242713451385,-0.2126895934343338,-0.021003637462854385
1761141527234280400,3.522280517578125,-0.154272198677063,-0.22044818103313446,-0.3724232017993927
1761141527244340200,3.53234033203125,-0.19471673667430878,-0.24876779317855835,-0.6595072746276855
1761141527254399200,3.542399169921875,-0.26719439029693604,-0.33766970038414,-0.7774392366409302
1761141527264459300,3.552459228515625,-0.3112749457359314,-0.3882994055747986,-0.7015609741210938
1761141527274519300,3.562519287109375,-0.29426586627960205,-0.27395394444465637,-0.4377831518650055
1761141527284578300,3.572578369140625,-0.21529744565486908,-0.023474952206015587,-0.09899093210697174
1761141527294638300,3.582638427734375,-0.10526121407747269,0.14349113404750824,0.26255473494529724
1761141527304698000,3.592697998046875,-0.003140093293040991,0.18685850501060486,0.5712391138076782
1761141527314757400,3.60275732421875,0.0707506462931633,0.22797079384326935,0.7013739347457886
1761141527324817200,3.612817138671875,0.11629119515419006,0.22559261322021484,0.6203694343566895
1761141527334877200,3.622877197265625,0.17345115542411804,0.19122345745563507,0.45924898982048035
1761141527344936400,3.6329365234375,0.13852407038211823,0.12279725819826126,0.24616654217243195
1761141527354996200,3.642996337890625,0.11460275202989578,0.008008357137441635,0.05327431857585907
1761141527365056300,3.65305615234375,0.09839219599962234,-0.07980041950941086,-0.09781596809625626
1761141527375115500,3.663115478515625,0.1057228073477745,-0.0984281674027443,-0.1753285974264145
1761141527385175300,3.67317529296875,0.12764880061149597,-0.06328901648521423,-0.17745301127433777
1761141527395235300,3.6832353515625,0.14066153764724731,0.00045507587492465973,-0.1524541825056076
1761141527405294000,3.693294189453125,0.14289617538452148,0.07390428334474564,-0.12524375319480896
1761141527415354400,3.703354248046875,0.12677766382694244,0.11743710935115814,-0.10900752991437912
1761141527425414400,3.713414306640625,0.10421889275312424,0.15394338965415955,-0.10943339020013809
1761141527435473200,3.72347314453125,0.07890820503234863,0.19013655185699463,-0.12268075346946716
1761141527445533200,3.733533203125,0.045348331332206726,0.1895107477903366,-0.13897351920604706
1761141527455593500,3.743593505859375,0.00894105713814497,0.16419100761413574,-0.1600087732076645
1761141527465653200,3.7536533203125,-0.005561082158237696,0.1153903529047966,-0.15655182301998138
1761141527475712300,3.763712158203125,0.0035969961900264025,0.10695133358240128,-0.12012484669685364
1761141527485772000,3.77377197265625,0.025565553456544876,0.1335148811340332,-0.050900284200906754
1761141527495832300,3.783832275390625,0.06394996494054794,0.15732914209365845,0.016353586688637733
1761141527505891000,3.79389111328125,0.10903177410364151,0.25261348485946655,0.13073289394378662
1761141527515951000,3.803951171875,0.12097125500440598,0.302824467420578,0.18886837363243103
1761141527526011100,3.81401123046875,0.13539624214172363,0.3205547630786896,0.16236865520477295
1761141527536070100,3.824070068359375,0.15271930396556854,0.3791126012802124,0.09635049849748611
1761141527546130200,3.834130126953125,0.1731962114572525,0.37711748480796814,0.01874752901494503
1761141527556190200,3.844190185546875,0.18411517143249512,0.3574625551700592,-0.03985613211989403
1761141527566249200,3.854249267578125,0.18042288720607758,0.2915544807910919,-0.0734562948346138
1761141527576309200,3.864309326171875,0.1592954844236374,0.19666898250579834,-0.08570604026317596
1761141527586369300,3.874369384765625,0.13637803494930267,0.14518676698207855,-0.08895400911569595
1761141527596428000,3.884427978515625,0.13245147466659546,0.11519291251897812,-0.07770667970180511
1761141527606488300,3.89448828125,0.15218515694141388,0.09213214367628098,-0.06393731385469437
1761141527616548000,3.904548095703125,0.1919429451227188,0.10337228327989578,-0.03710596263408661
1761141527626607000,3.914607177734375,0.21817949414253235,0.12317833304405212,0.009273733012378216
1761141527636667100,3.924667236328125,0.22506695985794067,0.14036238193511963,0.06912561506032944
1761141527646727200,3.93472705078125,0.2255047857761383,0.17225399613380432,0.10624422132968903
1761141527656786200,3.9447861328125,0.21738587319850922,0.20327796041965485,0.08140145987272263
1761141527666846200,3.95484619140625,0.1982864886522293,0.2183663696050644,-0.010184653103351593
1761141527676906000,3.964906005859375,0.18412326276302338,0.2089981585741043,-0.14751268923282623
1761141527686965200,3.97496533203125,0.17806841433048248,0.211762934923172,-0.2862606644630432
1761141527697025000,3.98502490234375,0.15970805287361145,0.21512624621391296,-0.3846279978752136
1761141527707085000,3.9950849609375,0.13473957777023315,0.260033518075943,-0.4002271890640259
1761141527717144300,4.005144287109375,0.1288747638463974,0.22480683028697968,-0.3644888997077942
1761141527727204000,4.0152041015625,0.12687020003795624,0.21832497417926788,-0.2811844050884247
1761141527737264000,4.02526416015625,0.12216893583536148,0.18078264594078064,-0.17694829404354095
1761141527747323400,4.035323486328125,0.11533525586128235,0.159153014421463,-0.05447177216410637
1761141527757383200,4.045383056640625,0.10485225915908813,0.14926736056804657,0.09483649581670761
1761141527767443200,4.055443115234375,0.07326123863458633,0.14516881108283997,0.24444212019443512
1761141527777503200,4.065503173828125,0.03924708440899849,0.13124419748783112,0.40105223655700684
1761141527787562200,4.075562255859375,0.013069184496998787,0.12072721123695374,0.5668243169784546
1761141527797622300,4.085622314453125,0.025572726503014565,0.15081267058849335,0.7531449198722839
1761141527807682300,4.095682373046875,0.06381668150424957,0.21252353489398956,0.9783485531806946
1761141527817741000,4.105740966796875,0.14199216663837433,0.2820802330970764,1.218691110610962
1761141527827801300,4.11580126953125,0.22346995770931244,0.3427550792694092,1.4179737567901611
1761141527837861000,4.125861083984375,0.2848922908306122,0.4264688789844513,1.48784339427948
1761141527847920000,4.135920166015625,0.40511390566825867,0.39599210023880005,1.4130278825759888
1761141527857980200,4.145980224609375,0.5905697345733643,0.34339094161987305,1.1874293088912964
1761141527868040200,4.156040283203125,0.7961709499359131,0.11365671455860138,0.904983639717102
1761141527878099200,4.16609912109375,0.48093897104263306,-0.3987474739551544,0.5412696003913879
1761141527888159200,4.1761591796875,0.15892010927200317,-0.5133781433105469,0.1914551854133606
1761141527898219000,4.186218994140625,-0.09743097424507141,-0.22399288415908813,-0.05139875039458275
1761141527908278300,4.1962783203125,-0.26145482063293457,0.3181050419807434,-0.12702655792236328
1761141527918338000,4.206338134765625,-0.33466458320617676,0.9397262334823608,-0.06956140697002411
1761141527928398000,4.216398193359375,-0.2968144416809082,1.29694664478302,0.0642639622092247
1761141527938457300,4.226457275390625,-0.15628769993782043,1.3254473209381104,0.18693500757217407
1761141527948517000,4.23651708984375,0.06598696112632751,1.1936237812042236,0.31890615820884705
1761141527958577200,4.2465771484375,0.31875771284103394,0.9970781803131104,0.46312060952186584
1761141527968636200,4.25663623046875,0.5676706433296204,0.8060109615325928,0.6024265885353088
1761141527978696200,4.2666962890625,0.7433394193649292,0.5202465653419495,0.6856735348701477
1761141527988756200,4.276756103515625,0.8062543869018555,0.1778523325920105,0.6535667777061462
1761141527998815000,4.28681494140625,0.7448616027832031,-0.16143813729286194,0.5265744924545288
1761141528008875000,4.296875,0.5743645429611206,-0.44344091415405273,0.3544781804084778
1761141528018935300,4.306935302734375,0.381339430809021,-0.5498672127723694,0.27896666526794434
1761141528028994000,4.316994140625,0.2387918382883072,-0.40575021505355835,0.34497877955436707
1761141528039054000,4.32705419921875,0.0972437709569931,-0.29088062047958374,0.3540889322757721
1761141528049114000,4.337114013671875,-0.06391964107751846,-0.31919926404953003,0.4042603671550751
1761141528059173000,4.347173095703125,-0.24793130159378052,-0.20518426597118378,0.4071999788284302
1761141528069233200,4.357233154296875,-0.4849841892719269,-0.35446202754974365,0.2511366605758667
1761141528079293200,4.367293212890625,-0.6983928680419922,-0.6703808307647705,0.04317092522978783
1761141528089352200,4.377352294921875,-0.8137628436088562,-0.9600355625152588,-0.06718793511390686
1761141528099412200,4.387412109375,-0.8126890659332275,-1.283217430114746,-0.03788251429796219
1761141528109472300,4.39747216796875,-0.7551811933517456,-1.6512188911437988,0.01341625303030014
1761141528119531300,4.40753125,-0.7918044328689575,-1.9216080904006958,-0.020352361723780632
1761141528129591300,4.41759130859375,-1.0184743404388428,-1.9455066919326782,-0.22642730176448822
1761141528139651000,4.427651123046875,-1.4237723350524902,-1.7816888093948364,-0.7257031798362732
1761141528149711000,4.437711181640625,-1.890627145767212,-1.5933408737182617,-1.445642113685608
1761141528159770400,4.447770263671875,-2.284578323364258,-1.3534296751022339,-2.1447763442993164
1761141528169830100,4.457830078125,-2.488065481185913,-0.9519703388214111,-2.55285382270813
1761141528179890200,4.46789013671875,-2.475233793258667,-0.4233802556991577,-2.511324644088745
1761141528189949200,4.47794921875,-2.335780143737793,0.06056581810116768,-2.054699420928955
1761141528200009200,4.48800927734375,-2.125338315963745,0.3257133364677429,-1.3050817251205444
1761141528210069200,4.4980693359375,-1.8841031789779663,0.40619099140167236,-0.4303361475467682
1761141528220128000,4.5081279296875,-1.6597486734390259,0.4044434130191803,0.4455205500125885
1761141528230188000,4.51818798828125,-1.5043915510177612,0.3494703769683838,1.2473160028457642
1761141528240248300,4.528248291015625,-1.4434208869934082,0.20172804594039917,1.788051962852478
1761141528250307000,4.53830712890625,-1.3846426010131836,-0.020930156111717224,2.096895456314087
1761141528260367000,4.5483671875,-1.2972331047058105,-0.26077017188072205,2.208075523376465
1761141528270427100,4.55842724609375,-1.2211824655532837,-0.4055897295475006,2.1225574016571045
1761141528280486100,4.568486083984375,-1.2417287826538086,-0.47256821393966675,1.8588075637817383
1761141528290546200,4.578546142578125,-1.3453340530395508,-0.5253861546516418,1.515058159828186
1761141528300606200,4.588606201171875,-1.4383162260055542,-0.4947611093521118,1.179565668106079
1761141528310665200,4.598665283203125,-1.4843909740447998,-0.5090460777282715,0.828821063041687
1761141528320725200,4.608725341796875,-1.52726149559021,-0.7804187536239624,0.39928165078163147
1761141528330785300,4.618785400390625,-1.584516167640686,-1.2286560535430908,-0.07548382133245468
1761141528340844000,4.628843994140625,-1.6549805402755737,-1.5279204845428467,-0.4740431606769562
1761141528350904300,4.638904296875,-1.7503515481948853,-1.6044920682907104,-0.7439873218536377
1761141528360964000,4.648964111328125,-1.8318637609481812,-1.4570860862731934,-0.8496266603469849
1761141528371023000,4.659023193359375,-1.8161550760269165,-1.0794273614883423,-0.7761847972869873
1761141528381083100,4.669083251953125,-1.6744227409362793,-0.6197584867477417,-0.5696569085121155
1761141528391143200,4.67914306640625,-1.4367140531539917,-0.155882328748703,-0.303190141916275
1761141528401202200,4.6892021484375,-1.151332974433899,0.1722249686717987,-0.04036383703351021
1761141528411262200,4.69926220703125,-0.9075188636779785,0.4149099290370941,0.16674555838108063
1761141528421322000,4.709322021484375,-0.7995985150337219,0.6168569326400757,0.3162810206413269
1761141528431381200,4.71938134765625,-0.8191168308258057,0.8286077976226807,0.423714280128479
1761141528441441000,4.72944091796875,-0.9359619617462158,0.9568387269973755,0.4681653678417206
1761141528451501000,4.7395009765625,-1.0809712409973145,0.9658129215240479,0.4688066244125366
1761141528461560300,4.749560302734375,-1.1700561046600342,0.8692448139190674,0.4348185658454895
1761141528471620000,4.7596201171875,-1.1868512630462646,0.7370142936706543,0.39988774061203003
1761141528481680100,4.76968017578125,-1.1384600400924683,0.5991984009742737,0.3697066903114319
1761141528491739400,4.779739501953125,-1.0763365030288696,0.4566461145877838,0.3619554042816162
1761141528501799400,4.78979931640625,-1.0433392524719238,0.35556504130363464,0.378409743309021
1761141528511859200,4.799859130859375,-1.0483033657073975,0.3126224875450134,0.41911399364471436
1761141528521918200,4.809918212890625,-1.0984920263290405,0.2708992660045624,0.44763219356536865
1761141528531978500,4.819978515625,-1.176211953163147,0.2135540246963501,0.4246307611465454
1761141528542038300,4.830038330078125,-1.2804725170135498,0.14397042989730835,0.29988670349121094
1761141528552097300,4.84009716796875,-1.3921566009521484,0.03139865770936012,0.05760664492845535
1761141528562157300,4.8501572265625,-1.4729243516921997,-0.11502912640571594,-0.30128014087677
1761141528572217300,4.86021728515625,-1.4682358503341675,-0.10865649580955505,-0.6561798453330994
1761141528582276400,4.8702763671875,-1.30754816532135,0.19421574473381042,-0.8746637105941772
1761141528592336100,4.880336181640625,-1.0035291910171509,0.7608264088630676,-0.9662675261497498
1761141528602396200,4.890396240234375,-0.6266699433326721,1.1575121879577637,-1.0731475353240967
1761141528612455400,4.900455322265625,-0.3747175931930542,1.117289423942566,-1.241843342781067
1761141528622515200,4.91051513671875,-0.5323746204376221,0.4867008626461029,-1.6029504537582397
1761141528632575200,4.9205751953125,-1.1983773708343506,-0.6349999308586121,-2.305276870727539
1761141528642635300,4.93063525390625,-2.074619770050049,-1.5400220155715942,-3.0372657775878906
1761141528652694300,4.9406943359375,-2.7379984855651855,-1.4164351224899292,-3.346000909805298
1761141528662754300,4.95075439453125,-3.1041290760040283,-0.5400316119194031,-3.228595495223999
1761141528672814300,4.960814453125,-3.201399564743042,0.46772336959838867,-2.827805519104004
1761141528682873300,4.970873291015625,-3.0816702842712402,1.210314154624939,-2.266998529434204
1761141528692933400,4.980933349609375,-2.848867416381836,1.6416455507278442,-1.6546579599380493
1761141528702993400,4.990993408203125,-2.6486406326293945,1.565678596496582,-1.0196785926818848
1761141528713052200,5.00105224609375,-2.524013042449951,1.0557266473770142,-0.3604680001735687
1761141528723112400,5.011112548828125,-2.4200305938720703,0.3520556092262268,0.33134350180625916
1761141528733172200,5.021172119140625,-2.2706265449523926,-0.35904833674430847,1.030664324760437
1761141528743231200,5.031231201171875,-2.0912158489227295,-0.9330061674118042,1.5569603443145752
1761141528753291300,5.041291259765625,-1.9357151985168457,-1.3988138437271118,1.7946223020553589
1761141528763351300,5.051351318359375,-1.8648127317428589,-1.625497579574585,1.7606701850891113
1761141528773410300,5.061410400390625,-1.8990548849105835,-1.598501443862915,1.5267318487167358
1761141528783470300,5.07147021484375,-2.0588009357452393,-1.4306488037109375,1.227463960647583
1761141528793530000,5.081530029296875,-2.297332525253296,-1.1695806980133057,0.8913753628730774
1761141528803589400,5.09158935546875,-2.4588088989257812,-0.916866660118103,0.5604954361915588
1761141528813649200,5.101649169921875,-2.476482629776001,-0.6221657395362854,0.2921049892902374
1761141528823709200,5.111709228515625,-2.383967876434326,-0.32227009534835815,0.08899447321891785
1761141528833768400,5.1217685546875,-2.2596347332000732,-0.05423719808459282,-0.02561921626329422
1761141528843828200,5.131828125,-2.1738662719726562,0.12263452261686325,-0.04970297962427139
1761141528853888300,5.14188818359375,-2.119678020477295,0.2477966994047165,0.022010887041687965
1761141528863947300,5.151947265625,-2.019343852996826,0.35979992151260376,0.17862632870674133
1761141528874007300,5.16200732421875,-1.8117384910583496,0.48204371333122253,0.401451051235199
1761141528884067300,5.1720673828125,-1.5203543901443481,0.6130595207214355,0.6011140942573547
1761141528894126000,5.1821259765625,-1.210669755935669,0.7663002014160156,0.7653489708900452
1761141528904186400,5.192186279296875,-0.9501462578773499,0.9280507564544678,0.9448303580284119
1761141528914246400,5.202246337890625,-0.7790663838386536,1.087253212928772,1.1388510465621948
1761141528924305200,5.21230517578125,-0.6750190854072571,1.1492379903793335,1.2714099884033203
1761141528934365200,5.222365234375,-0.6203688979148865,1.0871714353561401,1.2881228923797607
1761141528944425500,5.232425537109375,-0.6112345457077026,0.8688802123069763,1.2434113025665283
1761141528954484200,5.242484130859375,-0.6301080584526062,0.4453943967819214,1.1760987043380737
1761141528964544300,5.252544189453125,-0.6270150542259216,-0.19230297207832336,1.0916423797607422
1761141528974604300,5.262604248046875,-0.6524672508239746,-0.9535054564476013,0.9462332129478455
1761141528984663300,5.272663330078125,-0.7861893177032471,-1.6408979892730713,0.712171733379364
1761141528994723300,5.282723388671875,-0.9631941318511963,-1.894925832748413,0.4784776270389557
1761141529004783400,5.292783447265625,-1.1364479064941406,-1.712646484375,0.4007468819618225
1761141529014842400,5.30284228515625,-1.2843523025512695,-1.379298448562622,0.3779267966747284
1761141529024902400,5.31290234375,-1.277443528175354,-1.1229979991912842,0.22347596287727356
1761141529034962200,5.322962158203125,-1.0508238077163696,-0.9826921820640564,-0.09108871966600418
1761141529045021200,5.333021240234375,-0.6646450161933899,-0.8452330827713013,-0.4547177851200104
1761141529055081500,5.34308154296875,-0.2509755790233612,-0.6354653239250183,-0.714693546295166
1761141529065141200,5.353141357421875,0.015486477874219418,-0.3887157142162323,-0.7772003412246704
1761141529075200300,5.3632001953125,0.06591009348630905,-0.11956959962844849,-0.5857840180397034
1761141529085260300,5.37326025390625,-0.03645649179816246,0.16829814016819,-0.1976999044418335
1761141529095320300,5.3833203125,-0.19082750380039215,0.37407296895980835,0.2726810574531555
1761141529105379300,5.39337939453125,-0.31792527437210083,0.41263580322265625,0.7166142463684082
1761141529115439000,5.403439208984375,-0.39199504256248474,0.2496592253446579,1.0544480085372925
1761141529125499100,5.4134990234375,-0.43348389863967896,0.0061400276608765125,1.2477633953094482
1761141529135558400,5.423558349609375,-0.48057112097740173,-0.2583029568195343,1.3134851455688477
1761141529145618200,5.4336181640625,-0.5190292596817017,-0.493757039308548,1.2794380187988281
1761141529155678200,5.44367822265625,-0.5328144431114197,-0.6304489374160767,1.181326150894165
1761141529165737500,5.453737548828125,-0.5406560897827148,-0.5727747082710266,1.0341637134552002
1761141529175797200,5.46379736328125,-0.5594974160194397,-0.3908364474773407,0.7848840951919556
1761141529185857300,5.473857177734375,-0.574501633644104,-0.19476868212223053,0.4667295217514038
1761141529195916300,5.483916259765625,-0.5764178037643433,-0.026193218305706978,0.1717163622379303
1761141529205976300,5.493976318359375,-0.6124216318130493,0.045916397124528885,-0.039337024092674255
1761141529216036400,5.504036376953125,-0.6947948336601257,0.0666278749704361,-0.15884368121623993
1761141529226095000,5.51409521484375,-0.7952650189399719,0.01730320043861866,-0.18570806086063385
1761141529236155400,5.5241552734375,-0.9140012264251709,-0.13455769419670105,-0.13369812071323395
1761141529246215400,5.53421533203125,-1.0482819080352783,-0.361735463142395,-0.007994522340595722
1761141529256274200,5.544274169921875,-1.183817744255066,-0.6099834442138672,0.16482718288898468
1761141529266334200,5.554334228515625,-1.2859017848968506,-0.83885258436203,0.3200753629207611
1761141529276394200,5.564394287109375,-1.344233512878418,-0.9995673894882202,0.39764946699142456
1761141529286453200,5.574453369140625,-1.3676495552062988,-1.0432488918304443,0.3540950417518616
1761141529296513300,5.58451318359375,-1.3587853908538818,-0.9605945944786072,0.19054274260997772
1761141529306573300,5.5945732421875,-1.2770867347717285,-0.780686616897583,-0.04773053526878357
1761141529316632300,5.60463232421875,-1.1685435771942139,-0.5763071179389954,-0.29077938199043274
1761141529326692400,5.6146923828125,-1.1072179079055786,-0.45842206478118896,-0.478455513715744
1761141529336752000,5.624752197265625,-1.118635654449463,-0.46816468238830566,-0.5783225893974304
1761141529346811400,5.634811279296875,-1.1905862092971802,-0.5501455664634705,-0.5952932834625244
1761141529356871400,5.644871337890625,-1.2765933275222778,-0.49905887246131897,-0.5760329365730286
1761141529366931200,5.65493115234375,-1.3259539604187012,-0.6407582759857178,-0.6568129658699036
1761141529376990200,5.664990234375,-1.4590179920196533,-0.6077588200569153,-0.8291281461715698
1761141529387050500,5.675050537109375,-1.661815881729126,-0.4124140441417694,-0.994761049747467
1761141529397110300,5.6851103515625,-1.896641731262207,-0.3119046986103058,-1.0991456508636475
1761141529407169300,5.695169189453125,-2.0773701667785645,-0.15667572617530823,-1.1259993314743042
1761141529417229000,5.70522900390625,-2.1917800903320312,-0.030456524342298508,-1.0804188251495361
1761141529427289300,5.715289306640625,-2.2264623641967773,0.06780559569597244,-0.987534761428833
1761141529437348400,5.725348388671875,-2.2354671955108643,0.1422574818134308,-0.9025150537490845
1761141529447408000,5.735408203125,-2.254629373550415,0.21112655103206635,-0.8660857081413269
1761141529457468200,5.74546826171875,-2.2773871421813965,0.2176234871149063,-0.8641582727432251
1761141529467527400,5.75552734375,-2.2842648029327393,0.11731366068124771,-0.8680662512779236
1761141529477587200,5.765587158203125,-2.2627787590026855,0.0077299089170992374,-0.8735077977180481
1761141529487647700,5.775647705078125,-2.2234585285186768,-0.03515284135937691,-0.8928061127662659
1761141529497706800,5.785706787109375,-2.1598031520843506,-0.029212586581707,-0.932899534702301
1761141529507766800,5.795766845703125,-2.0908946990966797,0.01598232239484787,-0.9833765625953674
1761141529517826800,5.805826904296875,-2.0129008293151855,0.10261727124452591,-1.0360443592071533
1761141529527885600,5.815885498046875,-1.9183990955352783,0.1793067306280136,-1.0826672315597534
1761141529537945900,5.82594580078125,-1.8050209283828735,0.27736836671829224,-1.1093531847000122
1761141529548006000,5.836005859375,-1.695082664489746,0.47726309299468994,-1.0940200090408325
1761141529558064600,5.846064697265625,-1.5929689407348633,0.7582231163978577,-1.0333805084228516
1761141529568124700,5.856124755859375,-1.53113853931427,1.0721038579940796,-0.9568220973014832
1761141529578184700,5.866184814453125,-1.5312740802764893,1.3309118747711182,-0.8924943208694458
1761141529588243700,5.87624365234375,-1.59528386592865,1.4069867134094238,-0.821358323097229
1761141529598303700,5.8863037109375,-1.7074925899505615,1.3123306035995483,-0.7239575982093811
1761141529608363500,5.896363525390625,-1.8182960748672485,1.082435965538025,-0.5340933799743652
1761141529618422800,5.9064228515625,-1.8660873174667358,0.8122002482414246,-0.2298610806465149
1761141529628482800,5.91648291015625,-1.842826008796692,0.5535489320755005,0.18404901027679443
1761141529638542600,5.92654248046875,-1.7857182025909424,0.36158689856529236,0.6690315008163452
1761141529648601900,5.936601806640625,-1.7397488355636597,0.26461881399154663,1.1096781492233276
1761141529658661600,5.94666162109375,-1.7018989324569702,0.2344820201396942,1.4071681499481201
1761141529668721700,5.9567216796875,-1.6360740661621094,0.2204173356294632,1.5320725440979004
1761141529678780700,5.96678076171875,-1.516358733177185,0.14452765882015228,1.4836657047271729
1761141529688840700,5.9768408203125,-1.3207734823226929,0.004568422678858042,1.3138686418533325
1761141529698900700,5.986900634765625,-1.0963451862335205,-0.16902172565460205,1.0690721273422241
1761141529708959700,5.996959716796875,-0.9874213933944702,-0.6311246156692505,0.8105959892272949
1761141529719019800,6.007019775390625,-1.1078250408172607,-1.571861982345581,0.5249321460723877
1761141529729079800,6.017079833984375,-1.4116417169570923,-2.6601157188415527,0.11528552323579788
1761141529739138600,6.027138671875,-1.6869609355926514,-3.4267377853393555,-0.4726143479347229
1761141529749198600,6.037198486328125,-1.712162971496582,-3.5188238620758057,-1.0381077527999878
1761141529759258600,6.047258544921875,-1.5368441343307495,-2.769439458847046,-1.2486445903778076
1761141529769317600,6.057317626953125,-1.4568605422973633,-1.2893754243850708,-1.028289556503296
1761141529779377700,6.067377685546875,-1.537563443183899,0.6600443124771118,-0.28463754057884216
1761141529789437700,6.077437744140625,-1.629177212715149,1.9348037242889404,1.0554836988449097
1761141529799496700,6.08749658203125,-1.5638779401779175,2.202451705932617,2.6210947036743164
1761141529809556700,6.097556640625,-1.3917732238769531,1.7816126346588135,3.8999252319335938
1761141529819616800,6.10761669921875,-1.240178108215332,1.0730661153793335,4.659784317016602
1761141529829675800,6.11767578125,-1.1677182912826538,0.3990868926048279,4.960493564605713
1761141529839735800,6.12773583984375,-1.1596133708953857,-0.06845637410879135,4.870915412902832
1761141529849795800,6.1377958984375,-1.1666854619979858,-0.25765612721443176,4.423574924468994
1761141529859854600,6.1478544921875,-1.142748475074768,-0.12036377936601639,3.7452259063720703
1761141529869915000,6.157914794921875,-1.110397219657898,0.3404187560081482,2.922119379043579
1761141529879974700,6.167974609375,-1.0676342248916626,0.8836689591407776,2.0343804359436035
1761141529890033700,6.17803369140625,-0.9811813831329346,1.2733618021011353,1.2068735361099243
1761141529900093700,6.18809375,-0.8409948348999023,1.4315228462219238,0.5899691581726074
1761141529910153700,6.19815380859375,-0.6178299188613892,1.3683217763900757,0.23986764252185822
1761141529920212700,6.208212646484375,-0.36339372396469116,0.9984644651412964,0.1044602245092392
1761141529930272800,6.218272705078125,-0.15438881516456604,0.4837246537208557,0.14067788422107697
1761141529940332500,6.22833251953125,-0.07172661274671555,-0.08256175369024277,0.32810595631599426
1761141529950391800,6.238391845703125,-0.09499704837799072,-0.5188162922859192,0.6053112149238586
1761141529960451600,6.24845166015625,-0.1422504484653473,-0.7102001905441284,0.9925804138183594
1761141529970511600,6.25851171875,-0.14444676041603088,-0.6980657577514648,1.4733020067214966
1761141529980571000,6.26857080078125,-0.07927552610635757,-0.5457979440689087,1.8675845861434937
1761141529990630700,6.278630615234375,0.022175993770360947,-0.3453556299209595,1.9679255485534668
1761141530000690700,6.288690673828125,0.1509040892124176,-0.14677459001541138,1.6909860372543335
1761141530010749700,6.298749755859375,0.21685834228992462,0.011715983971953392,1.1689049005508423
1761141530020809700,6.308809814453125,0.18079283833503723,0.0924280658364296,0.5094287991523743
1761141530030869800,6.318869873046875,0.04748564586043358,0.08564073592424393,-0.09208635985851288
1761141530040928500,6.328928466796875,-0.09561304748058319,0.13788089156150818,-0.5180667042732239
1761141530050988800,6.33898876953125,-0.23337116837501526,0.2693483829498291,-0.7607163786888123
1761141530061048800,6.349048828125,-0.39504948258399963,0.3609652817249298,-0.8774762153625488
1761141530071107600,6.359107666015625,-0.5893065333366394,0.3442763090133667,-0.8915550112724304
1761141530081167600,6.369167724609375,-0.7768431305885315,0.3274226784706116,-0.8246169686317444
1761141530091227000,6.379226806640625,-0.9178151488304138,0.3075091540813446,-0.6897448897361755
1761141530101286700,6.38928662109375,-0.9494389295578003,0.27012354135513306,-0.5061840415000916
1761141530111346700,6.3993466796875,-0.8743289709091187,0.2122514545917511,-0.29010263085365295
1761141530121405700,6.40940576171875,-0.7430073618888855,0.1588219553232193,-0.06802432239055634
1761141530131465700,6.4194658203125,-0.5643185377120972,0.05211921036243439,0.11242268234491348
1761141530141525800,6.42952587890625,-0.3842426538467407,-0.12092941254377365,0.1698227822780609
1761141530151584500,6.43958447265625,-0.21433831751346588,-0.3381911516189575,0.10245678573846817
1761141530161644800,6.449644775390625,-0.06831012666225433,-0.4985514283180237,-0.030768699944019318
1761141530171704800,6.459704833984375,0.0214860737323761,-0.5947791337966919,-0.1763189733028412
1761141530181763600,6.469763671875,0.06512519717216492,-0.566272497177124,-0.30784153938293457
1761141530191823600,6.47982373046875,0.08730773627758026,-0.42994576692581177,-0.42220431566238403
1761141530201884000,6.4898837890625,0.11463863402605057,-0.24935755133628845,-0.5202645063400269
1761141530211942700,6.499942626953125,0.15835043787956238,-0.09684950113296509,-0.6619817018508911
1761141530222002700,6.510002685546875,0.168641597032547,0.042367611080408096,-0.887075662612915
1761141530232062700,6.520062744140625,0.12115103751420975,0.0838756412267685,-1.164353847503662
1761141530242121700,6.530121826171875,0.008092029020190239,0.00918576493859291,-1.4503926038742065
1761141530252181800,6.540181640625,-0.1527131050825119,-0.17275501787662506,-1.6754741668701172
1761141530262241500,6.550241455078125,-0.3206173777580261,-0.3417970538139343,-1.8185794353485107
1761141530272300800,6.56030078125,-0.4425872266292572,-0.47891974449157715,-1.9223204851150513
1761141530282360800,6.57036083984375,-0.47423794865608215,-0.5108610987663269,-2.0186188220977783
1761141530292420600,6.580420654296875,-0.419594407081604,-0.45262575149536133,-2.1765685081481934
1761141530302479600,6.590479736328125,-0.23154111206531525,-0.35073694586753845,-2.396174430847168
1761141530312540000,6.600539794921875,0.103816919028759,-0.4476347267627716,-2.5946407318115234
1761141530322599700,6.610599609375,0.5016274452209473,-0.8752478957176208,-2.665489435195923
1761141530332658700,6.62065869140625,0.9098857641220093,-1.357588529586792,-2.57039737701416
1761141530342718700,6.63071875,1.2353971004486084,-1.7990906238555908,-2.399721145629883
1761141530352778800,6.64077880859375,1.3828911781311035,-2.311629295349121,-2.286060333251953
1761141530362837800,6.650837646484375,1.2485175132751465,-3.156266450881958,-2.3455584049224854
1761141530372897500,6.6608974609375,0.8451338410377502,-4.004079341888428,-2.5816609859466553
1761141530382957800,6.670957763671875,0.21474233269691467,-4.045953273773193,-2.9971606731414795
1761141530393016800,6.681016845703125,-0.6968206763267517,-3.0913052558898926,-3.6418404579162598
1761141530403076600,6.69107666015625,-1.691519856452942,-1.3379613161087036,-4.309205532073975
1761141530413136600,6.70113671875,-2.346403121948242,0.7831878662109375,-4.619153022766113
1761141530423195600,6.711195556640625,-2.393094301223755,2.5220816135406494,-4.30869722366333
1761141530433255700,6.721255615234375,-2.096883773803711,3.285285472869873,-3.3381757736206055
1761141530443315700,6.731315673828125,-1.7449623346328735,2.8578991889953613,-2.030034065246582
1761141530453374700,6.741374755859375,-1.4705889225006104,1.9055858850479126,-0.6883917450904846
1761141530463434800,6.751434814453125,-1.3226079940795898,1.1372690200805664,0.4573579728603363
1761141530473494800,6.761494873046875,-1.2618045806884766,0.6548883318901062,1.2447729110717773
1761141530483553500,6.771553466796875,-1.2128195762634277,0.3546329438686371,1.659151554107666
1761141530493613000,6.781613037109375,-1.1188557147979736,0.23584692180156708,1.819722056388855
1761141530503672800,6.7916728515625,-0.928081214427948,0.06827225536108017,1.8153440952301025
1761141530513731800,6.80173193359375,-0.6767198443412781,-0.08364670723676682,1.7185137271881104
1761141530523792100,6.811792236328125,-0.5702094435691833,-0.2055978626012802,1.596975326538086
1761141530533852000,6.821851806640625,-0.672014594078064,-0.34266170859336853,1.4718033075332642
1761141530543911000,6.831910888671875,-0.8769745826721191,-0.39238759875297546,1.397249460220337
1761141530553971000,6.841970947265625,-1.0232186317443848,-0.35271981358528137,1.3798900842666626
1761141530564030000,6.852030029296875,-1.044679045677185,-0.29046985507011414,1.3908746242523193
1761141530574090000,6.862090087890625,-0.9356132745742798,-0.264889657497406,1.4009661674499512
1761141530584149800,6.872149658203125,-0.7073882818222046,-0.287557452917099,1.382657527923584
1761141530594209000,6.882208984375,-0.3889102041721344,-0.3141810894012451,1.322521448135376
1761141530604269000,6.89226904296875,-0.05416307598352432,-0.3155806064605713,1.2160106897354126
1761141530614328800,6.902328857421875,0.19048956036567688,-0.2699747681617737,1.1036173105239868
1761141530624388000,6.91238818359375,0.30775517225265503,-0.21551789343357086,1.031195878982544
1761141530634448100,6.9224482421875,0.2782822251319885,-0.20877903699874878,1.040650725364685
1761141530644508000,6.9325078125,0.1494346708059311,-0.25316691398620605,1.1029497385025024
1761141530654567000,6.94256689453125,0.02551751397550106,-0.34571123123168945,1.1487172842025757
1761141530664627000,6.952626953125,-0.03587188571691513,-0.4914078712463379,1.1362357139587402
1761141530674687000,6.96268701171875,-0.04544062539935112,-0.7118555307388306,0.981726348400116
1761141530684746000,6.97274609375,-0.025292212143540382,-1.011436104774475,0.6322429180145264
1761141530694805800,6.9828056640625,0.005442795343697071,-1.2870538234710693,0.11264420300722122
1761141530704866000,6.992865966796875,0.09449920803308487,-1.3783015012741089,-0.42502665519714355
1761141530714925000,7.002925048828125,0.23257692158222198,-1.1915884017944336,-0.8836360573768616
1761141530724984800,7.01298486328125,0.37064215540885925,-0.654636561870575,-1.1204838752746582
1761141530735044900,7.023044921875,0.5294017195701599,0.09991152584552765,-1.0773720741271973
1761141530745104100,7.033104248046875,0.7273905277252197,0.8890766501426697,-0.7802790999412537
1761141530755164000,7.043163818359375,0.9349168539047241,1.5152875185012817,-0.4002411961555481
1761141530765224000,7.053223876953125,1.0248810052871704,1.716857671737671,-0.1179598718881607
1761141530775283000,7.063282958984375,0.8735018968582153,1.2271409034729004,-0.10822229087352753
1761141530785343000,7.073343017578125,0.5046315789222717,0.29364752769470215,-0.477535218000412
1761141530795403000,7.083403076171875,0.041440997272729874,-0.543858528137207,-1.0324651002883911
1761141530805461800,7.093461669921875,-0.40432044863700867,-1.0415698289871216,-1.5345630645751953
1761141530815522000,7.10352197265625,-0.7863280177116394,-0.958827555179596,-1.8178493976593018
1761141530825581000,7.1135810546875,-1.055683970451355,-0.4564255177974701,-1.853208065032959
1761141530835640800,7.123640869140625,-1.0522035360336304,0.13658855855464935,-1.736812710762024
1761141530845700900,7.133700927734375,-0.628106951713562,0.6555405259132385,-1.5412133932113647
1761141530855760000,7.143759765625,0.1686527580022812,0.9525173306465149,-1.2695115804672241
1761141530865820000,7.15381982421875,1.1383459568023682,1.1138832569122314,-0.8721510767936707
1761141530875880000,7.1638798828125,1.9448989629745483,1.1983336210250854,-0.3486151695251465
1761141530885939000,7.17393896484375,2.398557186126709,1.228762149810791,0.2169061005115509
1761141530895999000,7.1839990234375,2.514341115951538,1.234142541885376,0.7075831890106201
1761141530906059000,7.19405908203125,2.415524482727051,1.2019498348236084,1.0699090957641602
1761141530916118000,7.204117919921875,2.193974018096924,1.1360629796981812,1.278610348701477
1761141530926178000,7.214177978515625,1.9017540216445923,1.0370532274246216,1.2951630353927612
1761141530936238000,7.224238037109375,1.610807180404663,0.878085196018219,1.1563925743103027
1761141530946296800,7.234296875,1.3556345701217651,0.6698632836341858,0.9435150623321533
1761141530956357000,7.244357177734375,1.1427600383758545,0.44759881496429443,0.6938514113426208
1761141530966417200,7.254417236328125,0.9457983374595642,0.24925503134727478,0.4246947467327118
1761141530976476000,7.264475830078125,0.7325941324234009,0.05431085079908371,0.16885818541049957
1761141530986536000,7.274535888671875,0.4961734414100647,-0.1646314263343811,-0.04224953055381775
1761141530996596000,7.284595947265625,0.2607516050338745,-0.33313122391700745,-0.25359293818473816
1761141531006655000,7.294655029296875,0.04215814545750618,-0.376981645822525,-0.45190608501434326
1761141531016715000,7.304715087890625,-0.1447792500257492,-0.28684720396995544,-0.6126016974449158
1761141531026774800,7.31477490234375,-0.2937258183956146,-0.10237088054418564,-0.6986246109008789
1761141531036834000,7.324833984375,-0.36421892046928406,0.14642642438411713,-0.6962711811065674
1761141531046894000,7.33489404296875,-0.3424840271472931,0.41941237449645996,-0.6563169360160828
1761141531056953900,7.344953857421875,-0.2307005077600479,0.6563961505889893,-0.650251567363739
1761141531067013000,7.35501318359375,-0.028873788192868233,0.7862775921821594,-0.6750799417495728
1761141531077073000,7.365072998046875,0.21280595660209656,0.8195865750312805,-0.6972699165344238
1761141531087132000,7.3751318359375,0.4196772575378418,0.8202695846557617,-0.6735492944717407
1761141531097192000,7.38519189453125,0.5291004180908203,0.7752317786216736,-0.6215609312057495
1761141531107252000,7.395251953125,0.5476664900779724,0.680212676525116,-0.5821558237075806
1761141531117311000,7.40531103515625,0.5235552787780762,0.5538025498390198,-0.5698440670967102
1761141531127371000,7.41537109375,0.44462886452674866,0.3177463114261627,-0.5633777976036072
1761141531137430800,7.4254306640625,0.30570319294929504,0.036584943532943726,-0.5328308343887329
1761141531147490000,7.435489990234375,0.12975391745567322,-0.24262399971485138,-0.4869753122329712
1761141531157549800,7.4455498046875,-0.03317294269800186,-0.43357694149017334,-0.44968971610069275
1761141531167609900,7.45560986328125,-0.09803452342748642,-0.5821437239646912,-0.41221800446510315
1761141531177669000,7.465669189453125,-0.07580405473709106,-0.7914271354675293,-0.3683179020881653
1761141531187729000,7.47572900390625,-0.012687738984823227,-1.0172405242919922,-0.3060028553009033
1761141531197789000,7.485788818359375,0.06743612885475159,-1.137048363685608,-0.20410631597042084
1761141531207848200,7.49584814453125,0.1838494837284088,-1.1020312309265137,-0.04753825068473816
1761141531217908000,7.505907958984375,0.3063093423843384,-0.9666262865066528,0.11608263850212097
1761141531227968000,7.515968017578125,0.42070522904396057,-0.79140305519104,0.2371865063905716
1761141531238026800,7.52602685546875,0.49070030450820923,-0.6442450284957886,0.30028796195983887
1761141531248087000,7.536087158203125,0.5001310110092163,-0.5229657292366028,0.32025930285453796
1761141531258147000,7.54614697265625,0.4744756817817688,-0.4254673719406128,0.30984050035476685
1761141531268205800,7.556205810546875,0.4385124146938324,-0.33382460474967957,0.258515328168869
1761141531278265900,7.566265869140625,0.4418621361255646,-0.1838603913784027,0.21358168125152588
1761141531288326100,7.576326171875,0.4739380478858948,-0.03903450071811676,0.20011724531650543
1761141531298385000,7.586385009765625,0.4818260669708252,0.126275897026062,0.20895440876483917
1761141531308445000,7.59644482421875,0.45548921823501587,0.28161466121673584,0.2118622362613678
1761141531318505000,7.6065048828125,0.4108474552631378,0.3797753155231476,0.18549375236034393
1761141531328564000,7.61656396484375,0.35689350962638855,0.4018406271934509,0.13272081315517426
1761141531338624000,7.6266240234375,0.29781872034072876,0.38093188405036926,0.07368066906929016
1761141531348683000,7.63668310546875,0.23003071546554565,0.36542177200317383,0.018162570893764496
1761141531358743000,7.646742919921875,0.15122352540493011,0.3606880009174347,-0.03658109903335571
1761141531368803000,7.656802978515625,0.06348710507154465,0.35009437799453735,-0.09283918142318726
1761141531378861800,7.66686181640625,-0.01366333942860365,0.2983797788619995,-0.15838275849819183
1761141531388921900,7.676921875,-0.052091531455516815,0.21275420486927032,-0.23597824573516846
1761141531398982100,7.686982177734375,-0.03985483944416046,0.14045923948287964,-0.28769630193710327
1761141531409041000,7.697041015625,0.0075970981270074844,0.0973847433924675,-0.3131990134716034
1761141531419101000,7.707100830078125,0.05123858526349068,0.0643644705414772,-0.31058430671691895
1761141531429161000,7.717160888671875,0.08254105597734451,0.05027293786406517,-0.30120474100112915
1761141531439220000,7.727219970703125,0.10982674360275269,0.06890654563903809,-0.28749480843544006
1761141531449280000,7.737280029296875,0.13090826570987701,0.11278246343135834,-0.27779948711395264
1761141531459339800,7.74733984375,0.13095860183238983,0.15101639926433563,-0.2716904580593109
1761141531469399000,7.75739892578125,0.0937175378203392,0.16991786658763885,-0.28658756613731384
1761141531479459000,7.767458984375,0.03481454774737358,0.18992619216442108,-0.3214379549026489
1761141531489519900,7.777519775390625,-0.04734210669994354,0.2356545329093933,-0.3708862066268921
1761141531499578600,7.78757861328125,-0.1287059336900711,0.2992207407951355,-0.42433851957321167
1761141531509639000,7.797638916015625,-0.20160186290740967,0.3574303984642029,-0.45998433232307434
1761141531519698000,7.807697998046875,-0.21190829575061798,0.38830363750457764,-0.4659324884414673
1761141531529757700,7.8177578125,-0.15794797241687775,0.3689422607421875,-0.44204363226890564
1761141531539817700,7.827817626953125,-0.07270392030477524,0.3222663700580597,-0.4063791036605835
1761141531549877000,7.837876953125,0.00861255545169115,0.27877533435821533,-0.3601767420768738
1761141531559936800,7.847936767578125,0.06147683411836624,0.2258433997631073,-0.305766224861145
1761141531569996800,7.857996826171875,0.08043914288282394,0.20091401040554047,-0.2476063072681427
1761141531580055800,7.868055908203125,0.06749484688043594,0.26208922266960144,-0.18278123438358307
1761141531590115800,7.87811572265625,0.029051557183265686,0.35825759172439575,-0.11516828835010529
1761141531600175900,7.88817578125,-0.0362108014523983,0.4237809479236603,-0.061445143073797226
1761141531610234600,7.898234619140625,-0.10000906884670258,0.4458778202533722,-0.01090955175459385
1761141531620295000,7.908294921875,-0.153120756149292,0.4312112629413605,0.07065828144550323
1761141531630355000,7.91835498046875,-0.15703833103179932,0.4223872423171997,0.19572541117668152
1761141531640413700,7.92841357421875,-0.12342791259288788,0.39860787987709045,0.33708012104034424
1761141531650473700,7.9384736328125,-0.07708917558193207,0.30689096450805664,0.46410292387008667
1761141531660534000,7.948533935546875,-0.032135009765625,0.14666934311389923,0.5705217719078064
1761141531670592800,7.9585927734375,0.024468788877129555,-0.03198525682091713,0.671748697757721
1761141531680652800,7.96865283203125,0.07636820524930954,-0.15524087846279144,0.7713890075683594
1761141531690712800,7.978712890625,0.07047323882579803,-0.16274960339069366,0.8244421482086182
1761141531700771800,7.988771728515625,-0.012685561552643776,-0.1302608996629715,0.7734074592590332
1761141531710831900,7.998831787109375,-0.15697723627090454,-0.09858445078134537,0.6263953447341919
1761141531720891000,8.008890869140625,-0.3120051920413971,-0.09830162674188614,0.429884672164917
1761141531730951000,8.018950927734375,-0.427960604429245,-0.11094650626182556,0.24825496971607208
1761141531741011000,8.029010986328124,-0.4573794901371002,-0.10046323388814926,0.134558767080307
1761141531751069700,8.039069580078126,-0.3980720043182373,-0.05017682537436485,0.11941899359226227
1761141531761130000,8.0491298828125,-0.25033900141716003,0.04000153765082359,0.2211163341999054
1761141531771190000,8.05918994140625,-0.10803453624248505,0.0649409219622612,0.4142363667488098
1761141531781248800,8.069248779296874,-0.03230223059654236,0.021273069083690643,0.638608455657959
1761141531791308800,8.079308837890625,-0.04030333831906319,-0.07878386974334717,0.8341348171234131
1761141531801368800,8.089368896484375,-0.12543953955173492,-0.2829071879386902,0.9844250082969666
1761141531811427800,8.099427734375,-0.22030894458293915,-0.5417705178260803,1.0716023445129395
1761141531821487900,8.10948779296875,-0.24392585456371307,-0.8672687411308289,1.1541041135787964
1761141531831547600,8.119547607421875,-0.18844865262508392,-1.3452873229980469,1.2457189559936523
1761141531841607000,8.12960693359375,-0.045246221125125885,-1.8840218782424927,1.3485851287841797
1761141531851667000,8.1396669921875,0.20410501956939697,-2.146369218826294,1.513946294784546
1761141531861726700,8.149726806640626,0.45087963342666626,-2.004122495651245,1.7558926343917847
1761141531871786000,8.159785888671875,0.6060524582862854,-1.6070177555084229,2.024702310562134
1761141531881845800,8.169845703125,0.6181554794311523,-1.1607409715652466,2.261906862258911
1761141531891904800,8.17990478515625,0.5010919570922852,-0.972500741481781,2.355416774749756
1761141531901964800,8.18996484375,0.36588382720947266,-0.8729547262191772,2.279649257659912
1761141531912024800,8.20002490234375,0.11517249792814255,-0.744825005531311,1.9689257144927979
1761141531922083800,8.210083740234374,-0.2682023048400879,-0.9214258790016174,1.4077469110488892
1761141531932143900,8.220143798828126,-0.534892201423645,-1.2923954725265503,0.7508196234703064
1761141531942203600,8.23020361328125,-0.5523646473884583,-1.8513400554656982,0.17924803495407104
1761141531952263000,8.240262939453125,-0.38665691018104553,-2.530453681945801,-0.14126622676849365
1761141531962322700,8.25032275390625,-0.17991703748703003,-2.975529909133911,-0.11826290935277939
1761141531972382700,8.2603828125,-0.012758065015077591,-3.059478521347046,0.24578160047531128
1761141531982442000,8.27044189453125,0.09843024611473083,-2.9107346534729004,0.8112924098968506
1761141531992501800,8.280501708984374,0.10910462588071823,-2.5479726791381836,1.3053971529006958
1761141532002561800,8.290561767578126,-0.013052440248429775,-1.954655647277832,1.5066266059875488
1761141532012620800,8.300620849609375,-0.2154524326324463,-1.2628695964813232,1.3167214393615723
1761141532022680800,8.310680908203125,-0.47422993183135986,-0.8243201375007629,0.718101978302002
1761141532032740900,8.320740966796874,-0.7337727546691895,-0.6718606948852539,-0.1982967108488083
1761141532042799900,8.3307998046875,-0.8582683205604553,-0.6180816292762756,-1.1965930461883545
1761141532052860000,8.34085986328125,-0.7713915705680847,-0.49770715832710266,-1.9970378875732422
1761141532062919000,8.3509189453125,-0.5173617005348206,-0.339984655380249,-2.453535318374634
1761141532072978700,8.360978759765626,-0.16531163454055786,-0.09989121556282043,-2.572234630584717
1761141532083038700,8.371038818359375,0.22991931438446045,0.18016813695430756,-2.381243944168091
1761141532093098000,8.381097900390625,0.5639639496803284,0.39455386996269226,-1.8905236721038818
1761141532103157800,8.39115771484375,0.7586860060691833,0.5714559555053711,-1.1636862754821777
1761141532113217800,8.4012177734375,0.7745922207832336,0.8965616226196289,-0.2916944622993469
1761141532123277000,8.411277099609375,0.5719988942146301,1.396335482597351,0.6048712134361267
1761141532133336800,8.4213369140625,0.18161919713020325,1.9240057468414307,1.350101113319397
1761141532143396900,8.43139697265625,-0.2747240960597992,2.299574136734009,1.8474448919296265
1761141532153455600,8.44145556640625,-0.6812106966972351,2.5021824836730957,2.094252347946167
1761141532163516000,8.451515869140625,-1.0057860612869263,2.5244598388671875,2.1364738941192627
1761141532173575000,8.461574951171874,-1.2696781158447266,2.3227310180664062,2.0545525550842285
1761141532183634700,8.471634765625,-1.4494044780731201,1.955145239830017,1.8607604503631592
1761141532193694700,8.48169482421875,-1.5302079916000366,1.4457035064697266,1.5670833587646484
1761141532203754000,8.49175390625,-1.5084164142608643,0.7677143812179565,1.2193946838378906
1761141532213813800,8.501813720703124,-1.424598217010498,0.27829989790916443,0.8665863871574402
1761141532223873800,8.511873779296875,-1.2672021389007568,-0.08313605934381485,0.5546897649765015
1761141532233932800,8.521932861328125,-1.0801390409469604,-0.09401611983776093,0.3056861460208893
1761141532243992800,8.531992919921874,-0.8990902304649353,0.10681472718715668,0.1267765760421753
1761141532254052900,8.542052978515626,-0.7372624278068542,0.4097665846347809,0.03852033615112305
1761141532264111900,8.55211181640625,-0.6199483275413513,0.7713697552680969,0.015633398666977882
1761141532274172000,8.562171875,-0.5484289526939392,1.1306538581848145,0.05888425186276436
1761141532284232000,8.57223193359375,-0.5176944732666016,1.4134775400161743,0.13614600896835327
1761141532294290700,8.582290771484375,-0.4857160151004791,1.5985698699951172,0.2101314812898636
1761141532304351000,8.59235107421875,-0.43360382318496704,1.6900595426559448,0.27652329206466675
1761141532314409700,8.60240966796875,-0.3528326153755188,1.7014976739883423,0.31847289204597473
1761141532324469800,8.6124697265625,-0.2696181535720825,1.6760114431381226,0.3591928780078888
1761141532334529800,8.62252978515625,-0.2076973021030426,1.627315640449524,0.39721667766571045
1761141532344588800,8.6325888671875,-0.15770283341407776,1.5218003988265991,0.45712047815322876
1761141532354648800,8.64264892578125,-0.0823206827044487,1.4112160205841064,0.5619393587112427
1761141532364708900,8.652708984375,0.038999345153570175,1.3511325120925903,0.7547205090522766
1761141532374767900,8.662767822265625,0.23248396813869476,1.2403825521469116,1.089310884475708
1761141532384828000,8.672827880859375,0.46830129623413086,0.9263725280761719,1.5139447450637817
1761141532394888000,8.682887939453124,0.6886981129646301,0.43280380964279175,1.9087036848068237
1761141532404946700,8.69294677734375,0.7921518087387085,-0.06835384666919708,2.1452324390411377
1761141532415007000,8.703007080078125,0.6664562225341797,-0.3896391987800598,2.0715866088867188
1761141532425067000,8.71306689453125,0.3509445786476135,-0.4771847426891327,1.7136268615722656
1761141532435125800,8.723125732421876,-0.029279537498950958,-0.3429669737815857,1.167035460472107
1761141532445185800,8.733185791015625,-0.36322343349456787,-0.03664058446884155,0.5405092239379883
1761141532455244800,8.743244873046875,-0.6062058806419373,0.26969584822654724,-0.06269144266843796
1761141532465304800,8.753304931640624,-0.7029644250869751,0.3794407248497009,-0.5332570672035217
1761141532475364900,8.76336474609375,-0.6213135719299316,0.3902404308319092,-0.7896475791931152
1761141532485423900,8.773423828125,-0.30879533290863037,0.8243362307548523,-0.8927319049835205
1761141532495482600,8.783482666015624,0.20885825157165527,1.2925093173980713,-0.9149708151817322
1761141532505542700,8.793542724609376,0.6331447958946228,0.3600369393825531,-1.065128207206726
1761141532515602000,8.803601806640625,0.6252126097679138,-1.9592951536178589,-1.5863908529281616
1761141532525661700,8.81366162109375,0.21821476519107819,-3.7125260829925537,-2.2851033210754395
1761141532535721700,8.8237216796875,-0.5719896554946899,-3.999617576599121,-2.945692777633667
1761141532545781000,8.833781005859375,-1.785230040550232,-2.6648166179656982,-3.7511329650878906
1761141532555840800,8.8438408203125,-3.180560827255249,-0.10409589111804962,-4.748651027679443
1761141532565900800,8.85390087890625,-4.201028823852539,2.7641959190368652,-5.507389068603516
1761141532575959800,8.863959716796876,-4.494275093078613,5.156777381896973,-5.808274745941162
1761141532586019800,8.874019775390625,-4.247752666473389,6.178256034851074,-5.770293712615967
1761141532596078800,8.884078857421875,-3.737337112426758,5.207213401794434,-5.340756416320801
1761141532606138600,8.894138671875,-3.059412956237793,2.3990161418914795,-4.2777581214904785
1761141532616198700,8.90419873046875,-2.215411901473999,-0.779098391532898,-2.5803067684173584
1761141532626258000,8.9142578125,-1.3095487356185913,-2.8629424571990967,-0.5674317479133606
1761141532636317700,8.924317626953124,-0.5347439050674438,-3.5758676528930664,1.3758515119552612
1761141532646377700,8.934377685546876,-0.06673305481672287,-3.2458555698394775,2.7288503646850586
1761141532656436700,8.944436767578125,0.11829855293035507,-2.283475637435913,3.2347493171691895
1761141532666496800,8.954496826171875,0.07568557560443878,-1.154588222503662,2.8937509059906006
1761141532676556800,8.964556884765624,-0.12343944609165192,-0.27194324135780334,1.9326673746109009
1761141532686615800,8.97461572265625,-0.33755597472190857,0.311200886964798,0.7278733253479004
1761141532696675800,8.98467578125,-0.4327473044395447,0.6404747366905212,-0.36469194293022156
1761141532706735900,8.99473583984375,-0.4309464693069458,0.7308009266853333,-1.1277283430099487
1761141532716794600,9.004794677734376,-0.41253799200057983,0.6493425965309143,-1.4779984951019287
1761141532726855000,9.01485498046875,-0.4232633411884308,0.4171469211578369,-1.43817937374115
1761141532736913700,9.02491357421875,-0.44500109553337097,0.042044613510370255,-1.1041204929351807
1761141532746973700,9.0349736328125,-0.43405869603157043,-0.32621705532073975,-0.603525698184967
1761141532757033700,9.04503369140625,-0.38313162326812744,-0.57668536901474,-0.05353445187211037
1761141532767092700,9.0550927734375,-0.3071175515651703,-0.6081618070602417,0.4181446433067322
1761141532777152800,9.06515283203125,-0.21343673765659332,-0.3271947503089905,0.7705410122871399
1761141532787212800,9.075212890625,-0.07661072164773941,0.12239556759595871,1.0072417259216309
1761141532797271800,9.085271728515625,0.11864428967237473,0.4465547204017639,1.0848098993301392
1761141532807331800,9.095331787109375,0.35949498414993286,0.45659777522087097,0.9867557287216187
1761141532817391900,9.105391845703124,0.6234477758407593,0.2880588471889496,0.819997251033783
1761141532827451000,9.115450927734376,0.8429971933364868,0.04806780815124512,0.6665240526199341
1761141532837511000,9.125510986328125,0.886260449886322,-0.25412026047706604,0.5535850524902344
1761141532847569700,9.135569580078124,0.7309640645980835,-0.5211886763572693,0.4773366451263428
1761141532857629700,9.145629638671876,0.4597090482711792,-0.5984354615211487,0.4246978163719177
1761141532867689700,9.155689697265625,0.175257608294487,-0.5117096304893494,0.3922517001628876
1761141532877748700,9.165748779296875,-0.018152855336666107,-0.3124505579471588,0.39124956727027893
1761141532887808800,9.175808837890624,-0.07139609754085541,0.00207220995798707,0.4486883580684662
1761141532897868800,9.185868896484376,-0.028728391975164413,0.3077917695045471,0.5459953546524048
1761141532907927800,9.195927734375,0.08275126665830612,0.48541903495788574,0.6774442195892334
1761141532917987800,9.20598779296875,0.23712120950222015,0.5323709845542908,0.8341978788375854
1761141532928047900,9.2160478515625,0.4018603265285492,0.3890277147293091,0.9791252613067627
1761141532938107000,9.22610693359375,0.5694454908370972,0.08865576237440109,1.0893207788467407
1761141532948167000,9.2361669921875,0.7137142419815063,-0.23904381692409515,1.1662416458129883
1761141532958225700,9.2462255859375,0.8248772621154785,-0.4972418248653412,1.2195148468017578
1761141532968285700,9.25628564453125,0.8825719952583313,-0.6832178235054016,1.273747205734253
1761141532978346000,9.266345947265625,0.8478532433509827,-0.8028761744499207,1.306404948234558
1761141532988404700,9.27640478515625,0.7108871340751648,-0.7604043483734131,1.2595540285110474
1761141532998464800,9.28646484375,0.507129967212677,-0.5052174925804138,1.0892058610916138
1761141533008524800,9.29652490234375,0.3554219603538513,-0.19264310598373413,0.8423063158988953
1761141533018583800,9.306583740234375,0.2950424551963806,0.05391586571931839,0.577733039855957
1761141533028643800,9.316643798828125,0.2640291452407837,0.11180739849805832,0.32074546813964844
1761141533038703600,9.32670361328125,0.23654945194721222,-0.00397553900256753,0.09391172975301743
1761141533048763000,9.336762939453125,0.22879140079021454,-0.20302286744117737,-0.05927595868706703
1761141533058823000,9.346822998046875,0.25056126713752747,-0.40604400634765625,-0.10513793677091599
1761141533068881700,9.356881591796874,0.26892349123954773,-0.5924317240715027,-0.04920382797718048
1761141533078941700,9.366941650390626,0.24671225249767303,-0.7495121955871582,0.07976488769054413
1761141533089002000,9.377001953125,0.18224218487739563,-0.7628594040870667,0.24091994762420654
1761141533099060700,9.387060791015625,0.1010223776102066,-0.5845831632614136,0.3861292600631714
1761141533109120800,9.397120849609376,0.02462134324014187,-0.3460216820240021,0.4673130512237549
1761141533119180800,9.407180908203125,-0.012326430529356003,-0.11719874292612076,0.47980788350105286
1761141533129239800,9.41723974609375,-0.004345735069364309,0.08068531006574631,0.4137319028377533
1761141533139299800,9.4272998046875,0.06504648923873901,0.18355220556259155,0.3146726191043854
1761141533149359600,9.437359619140626,0.16832707822322845,0.15914113819599152,0.21725471317768097
1761141533159419000,9.4474189453125,0.268733412027359,0.04748401790857315,0.11637083441019058
1761141533169479000,9.45747900390625,0.3077830672264099,-0.07945901155471802,0.00336705194786191
1761141533179537700,9.46753759765625,0.2698005437850952,-0.18067139387130737,-0.1060892790555954
1761141533189598000,9.477597900390625,0.190602645277977,-0.18559159338474274,-0.1583372950553894
1761141533199657700,9.48765771484375,0.11069277673959732,-0.13766467571258545,-0.136387437582016
1761141533209716700,9.497716796875,0.0433957576751709,-0.08325789868831635,-0.0905698835849762
1761141533219776800,9.50777685546875,0.005295811221003532,-0.04544955492019653,-0.06028369069099426
1761141533229836800,9.5178369140625,-0.003721385495737195,-0.04135707765817642,-0.0620669461786747
1761141533239895800,9.527895751953125,0.004712869878858328,-0.00822366587817669,-0.07841713726520538
1761141533249955800,9.537955810546874,0.02514624036848545,0.05475582927465439,-0.10224737226963043
1761141533260015600,9.548015625,0.04569905623793602,0.09058906883001328,-0.1310187429189682
1761141533270075000,9.558074951171875,0.047595761716365814,0.08655545115470886,-0.16471919417381287
1761141533280134700,9.568134765625,0.017116665840148926,0.04893537610769272,-0.2220698595046997
1761141533290194000,9.57819384765625,-0.03491484001278877,0.0021031522192060947,-0.31488528847694397
1761141533300254000,9.58825390625,-0.09348584711551666,-0.014017626643180847,-0.44157037138938904
1761141533310313700,9.598313720703125,-0.13921737670898438,0.01213354803621769,-0.5491058826446533
1761141533320372700,9.608372802734374,-0.1637360155582428,0.03040117397904396,-0.6041133403778076
1761141533330432800,9.618432861328126,-0.1393851339817047,0.02427404187619686,-0.5801808834075928
1761141533340492800,9.628492919921875,-0.0524618998169899,-0.007467160001397133,-0.4905714988708496
1761141533350551800,9.6385517578125,0.05625925585627556,-0.05216299369931221,-0.3804772198200226
1761141533360611600,9.648611572265626,0.15580323338508606,-0.08989448845386505,-0.2798687517642975
1761141533370671900,9.658671875,0.2450481653213501,-0.01641920581459999,-0.1868831366300583
1761141533380731000,9.66873095703125,0.30387869477272034,0.0774570032954216,-0.11149574816226959
1761141533390790700,9.678790771484374,0.29730257391929626,0.051727667450904846,-0.08415094763040543
1761141533400850000,9.688849853515626,0.2584969699382782,-0.02610626444220543,-0.1154952347278595
1761141533410910000,9.698909912109375,0.2171444594860077,-0.062185171991586685,-0.17090308666229248
1761141533420969700,9.7089697265625,0.16740107536315918,-0.04784051701426506,-0.2299162894487381
1761141533431028700,9.71902880859375,0.10343834012746811,-0.04633104056119919,-0.29414668679237366
1761141533441088800,9.7290888671875,0.05505365505814552,-0.05619342252612114,-0.33868446946144104
1761141533451148800,9.739148681640625,0.017261270433664322,-0.06593021005392075,-0.3702456057071686
1761141533461207800,9.749207763671874,-0.014265705831348896,-0.06616330146789551,-0.3929363191127777
1761141533471267600,9.759267578125,-0.041619833558797836,-0.04607747495174408,-0.39768368005752563
1761141533481326800,9.769326904296875,-0.05956481769680977,-0.025254659354686737,-0.38440632820129395
1761141533491387600,9.7793876953125,-0.0699884369969368,-0.0016571888700127602,-0.3535541296005249
1761141533501447400,9.789447509765624,-0.09025991708040237,0.006408753804862499,-0.32183635234832764
1761141533511506400,9.79950634765625,-0.1092304140329361,0.027348922565579414,-0.29532164335250854
1761141533521566700,9.809566650390625,-0.11899765580892563,0.09952201694250107,-0.27764374017715454
1761141533531626500,9.81962646484375,-0.12524276971817017,0.20574991405010223,-0.28080782294273376
1761141533541685500,9.829685546875,-0.13761760294437408,0.2731451392173767,-0.29436227679252625
1761141533551745500,9.83974560546875,-0.14523957669734955,0.31943780183792114,-0.3160896897315979
1761141533561805600,9.8498056640625,-0.13465073704719543,0.3200763165950775,-0.33498358726501465
1761141533571864600,9.859864501953124,-0.10894271731376648,0.2531960904598236,-0.32597118616104126
1761141533581924400,9.86992431640625,-0.07803159952163696,0.1552596092224121,-0.28280138969421387
1761141533591983600,9.879983642578125,-0.05071822181344032,0.07312478870153427,-0.1936454027891159
1761141533602043600,9.890043701171875,-0.04573708400130272,0.021989746019244194,-0.09433510899543762
1761141533612103400,9.900103515625,-0.04268962889909744,0.03447171673178673,-0.014424031600356102
1761141533622162700,9.91016259765625,-0.005722023546695709,0.07543139904737473,0.07430051267147064
1761141533632222700,9.92022265625,0.06536493450403214,0.17420829832553864,0.15220490097999573
1761141533642282500,9.930282470703125,0.14149941504001617,0.28701817989349365,0.22785110771656036
1761141533652341500,9.940341552734376,0.1810777187347412,0.3685646951198578,0.26584696769714355
1761141533662401500,9.950401611328125,0.19572797417640686,0.38381507992744446,0.2676452696323395
1761141533672460500,9.96046044921875,0.20698168873786926,0.33869022130966187,0.24536234140396118
1761141533682520600,9.9705205078125,0.21529217064380646,0.19333718717098236,0.21707330644130707
1761141533692580400,9.980580322265626,0.20904706418514252,0.03394567221403122,0.24438616633415222
1761141533702639600,9.9906396484375,0.17430871725082397,-0.05331939086318016,0.3425375819206238
1761141533712699600,10.00069970703125,0.1550508737564087,0.012048697099089622,0.5140696167945862
1761141533722759400,10.010759521484376,0.15315207839012146,0.12431929260492325,0.6883758306503296
1761141533732818700,10.020818603515625,0.14265203475952148,0.19359555840492249,0.7767280340194702
1761141533742878500,10.03087841796875,0.1397494673728943,0.23080283403396606,0.7374916076660156
1761141533752938500,10.0409384765625,0.16409528255462646,0.23625965416431427,0.5572123527526855
1761141533762997500,10.05099755859375,0.2292160838842392,0.1845790296792984,0.27319562435150146
1761141533773057500,10.0610576171875,0.33844882249832153,0.1326814740896225,-0.03563197702169418
1761141533783116500,10.071116455078124,0.4516969919204712,0.2713371515274048,-0.36136066913604736
1761141533793176600,10.081176513671876,0.5152972936630249,0.4902207851409912,-0.709791362285614
1761141533803236600,10.091236572265625,0.5350785851478577,0.44568806886672974,-1.0247116088867188
1761141533813295600,10.101295654296875,0.5008236765861511,0.021351967006921768,-1.2078219652175903
1761141533823355400,10.11135546875,0.39727237820625305,-0.5922258496284485,-1.1866636276245117
1761141533833415400,10.12141552734375,0.21534067392349243,-0.8718335032463074,-0.9493793249130249
1761141533843474700,10.131474609375,0.014293164014816284,-0.4996880292892456,-0.5151692628860474
1761141533853534500,10.141534423828125,-0.16726438701152802,0.28140538930892944,0.06640812009572983
1761141533863594500,10.151594482421874,-0.3054320216178894,0.8115139603614807,0.6177296042442322
1761141533873653800,10.16165380859375,-0.4200446307659149,0.8507582545280457,0.9823238253593445
1761141533883713500,10.171713623046875,-0.5646688342094421,0.5686388611793518,1.1838268041610718
1761141533893772500,10.1817724609375,-0.7235495448112488,0.08988853543996811,1.3238004446029663
1761141533903832300,10.191832275390626,-0.7975030541419983,-0.3425007462501526,1.3048433065414429
1761141533913892600,10.201892578125,-0.7618827819824219,-0.5604149699211121,1.019578218460083
1761141533923951600,10.21195166015625,-0.6238088011741638,-0.6337403059005737,0.5072600841522217
1761141533934011400,10.222011474609374,-0.4319184422492981,-0.7804485559463501,-0.09144920855760574
1761141533944071400,10.232071533203126,-0.2234390527009964,-0.9481946229934692,-0.6444200873374939
1761141533954130700,10.242130615234375,0.001647052587941289,-1.0136545896530151,-1.0361169576644897
1761141533964190500,10.2521904296875,0.23433944582939148,-0.689247190952301,-1.1580678224563599
1761141533974249700,10.262249755859376,0.31243079900741577,-0.10910608619451523,-0.9479007720947266
1761141533984309500,10.2723095703125,0.1428454965353012,0.5530718564987183,-0.5903414487838745
1761141533994369500,10.28236962890625,-0.20418862998485565,1.0220774412155151,-0.283825159072876
1761141534004428500,10.292428466796874,-0.612713098526001,1.0589951276779175,-0.08252976834774017
1761141534014488600,10.302488525390626,-0.9289554357528687,0.708991527557373,0.09827011078596115
1761141534024548600,10.312548583984375,-1.1207094192504883,0.16032299399375916,0.2597995698451996
1761141534034607600,10.322607666015625,-1.184080958366394,-0.2511068880558014,0.3427692949771881
1761141534044667400,10.33266748046875,-1.1394294500350952,-0.4788435101509094,0.3271555006504059
1761141534054726700,10.3427265625,-1.0215193033218384,-0.6088576912879944,0.21350297331809998
1761141534064786400,10.352786376953125,-0.8878433704376221,-0.6146494150161743,0.018064189702272415
1761141534074846500,10.362846435546874,-0.7886627316474915,-0.5129528641700745,-0.23445859551429749
1761141534084905700,10.37290576171875,-0.7125237584114075,-0.2806631922721863,-0.5078946948051453
1761141534094965500,10.382965576171875,-0.6202380657196045,0.027226995676755905,-0.7459107041358948
1761141534105025500,10.393025634765625,-0.5049630403518677,0.32714730501174927,-0.8900722861289978
1761141534115084500,10.40308447265625,-0.4198577404022217,0.5223415493965149,-0.9489012360572815
1761141534125144600,10.41314453125,-0.37836405634880066,0.5651755332946777,-0.9151864647865295
1761141534135204600,10.42320458984375,-0.37930306792259216,0.4178375005722046,-0.8301988840103149
1761141534145263400,10.433263427734374,-0.4070762097835541,0.11224891990423203,-0.7524666786193848
1761141534155323400,10.443323486328126,-0.4535315930843353,-0.29328101873397827,-0.7425962090492249
1761141534165382700,10.453382568359375,-0.5067435503005981,-0.6757092475891113,-0.7955034971237183
1761141534175442400,10.4634423828125,-0.5224679112434387,-0.893170177936554,-0.821835994720459
1761141534185502500,10.47350244140625,-0.49971672892570496,-0.9125516414642334,-0.7947890758514404
1761141534195561700,10.483561767578125,-0.4302617609500885,-0.748502254486084,-0.6891793012619019
1761141534205621500,10.49362158203125,-0.29522719979286194,-0.5124463438987732,-0.5030759572982788
1761141534215681500,10.503681640625,-0.10231421142816544,-0.24967145919799805,-0.25136592984199524
1761141534225740500,10.513740478515626,0.11761534214019775,-0.009487465023994446,0.04988502338528633
1761141534235800600,10.523800537109375,0.31942036747932434,0.11468641459941864,0.37474939227104187
1761141534245859600,10.533859619140625,0.47151413559913635,0.06070271134376526,0.6881694793701172
1761141534255919400,10.54391943359375,0.5627912878990173,-0.08639858663082123,0.9380105137825012
1761141534265979600,10.553979736328126,0.6076743602752686,-0.21538716554641724,1.11481511592865
1761141534276038700,10.56403857421875,0.600541353225708,-0.3561067283153534,1.2260169982910156
1761141534286098400,10.574098388671874,0.552922785282135,-0.4803595244884491,1.2635375261306763
1761141534296158500,10.584158447265626,0.479941189289093,-0.5333443880081177,1.2206281423568726
1761141534306217500,10.594217529296875,0.3928278982639313,-0.5048542022705078,1.1135841608047485
1761141534316277500,10.604277587890625,0.2783204913139343,-0.4295900762081146,0.9332247376441956
1761141534326336500,10.61433642578125,0.1343318074941635,-0.4132664203643799,0.6764804720878601
1761141534336396500,10.624396484375,0.028434667736291885,-0.3918735086917877,0.41996529698371887
1761141534346456600,10.63445654296875,-0.04557642340660095,-0.28551381826400757,0.20424436032772064
1761141534356515600,10.644515625,-0.1326972097158432,-0.084454745054245,0.019714469090104103
1761141534366575400,10.654575439453126,-0.212550550699234,0.23725305497646332,-0.13112904131412506
1761141534376635600,10.6646357421875,-0.2948185205459595,0.4755370020866394,-0.27890545129776
1761141534386694400,10.6746943359375,-0.35166093707084656,0.5389310121536255,-0.47246253490448
1761141534396754400,10.68475439453125,-0.30704209208488464,0.5390862822532654,-0.6625224947929382
1761141534406813700,10.694813720703126,-0.1466992050409317,0.5694845914840698,-0.7453195452690125
1761141534416873500,10.70487353515625,0.07384727150201797,0.8060327172279358,-0.6937665939331055
1761141534426933500,10.71493359375,0.31100451946258545,1.0652029514312744,-0.5271930694580078
1761141534436992800,10.72499267578125,0.590927243232727,1.186586856842041,-0.33859142661094666
1761141534447052500,10.735052490234375,0.8835778832435608,0.9888135194778442,-0.14847221970558167
1761141534457112600,10.745112548828125,1.0788488388061523,-0.047697290778160095,0.07392090559005737
1761141534467171300,10.75517138671875,1.1302021741867065,-1.9501953125,0.1844083070755005
1761141534477231600,10.765231689453126,0.9751101136207581,-3.283832311630249,0.23638547956943512
1761141534487290600,10.77529052734375,0.3350800573825836,-3.486518383026123,0.028187379240989685
1761141534497351000,10.785350830078125,-0.8639919757843018,-2.142967462539673,-0.6622920036315918
1761141534507410700,10.79541064453125,-2.187497138977051,0.22171717882156372,-1.6366239786148071
1761141534517470000,10.805469970703125,-2.9681427478790283,2.4167306423187256,-2.4713821411132812
1761141534527529700,10.81552978515625,-2.9276909828186035,3.597944736480713,-2.8584742546081543
1761141534537589800,10.82558984375,-2.3035693168640137,3.4796900749206543,-2.8290469646453857
1761141534547649000,10.83564892578125,-1.3688796758651733,2.3342857360839844,-2.3724191188812256
1761141534557708800,10.845708740234375,-0.3485093116760254,0.766577959060669,-1.452696681022644
1761141534567767800,10.855767822265625,0.6219393610954285,-0.5687148571014404,-0.1734818071126938
1761141534577827800,10.865827880859374,1.3859403133392334,-1.2979600429534912,1.1929160356521606
1761141534587887900,10.875887939453126,1.8122882843017578,-1.5398670434951782,2.346499443054199
1761141534597947000,10.88594677734375,1.9632247686386108,-1.3058768510818481,3.0825254917144775
1761141534608006700,10.896006591796874,1.8642998933792114,-0.7687078714370728,3.33984637260437
1761141534618066700,10.906066650390626,1.5888761281967163,-0.1966707557439804,3.103499412536621
1761141534628126000,10.9161259765625,1.256431221961975,0.2671840488910675,2.5217390060424805
1761141534638185700,10.926185791015625,1.0053622722625732,0.6391112208366394,1.813340187072754
1761141534648244700,10.93624462890625,0.905456006526947,0.9602662920951843,1.15073823928833
1761141534658305000,10.946304931640626,0.9498813152313232,1.1948784589767456,0.64606112241745
1761141534668364800,10.95636474609375,1.1293492317199707,1.3172712326049805,0.3312169313430786
1761141534678423800,10.966423828125,1.394051194190979,1.2744520902633667,0.22024299204349518
1761141534688483800,10.97648388671875,1.620492935180664,1.0694340467453003,0.28737539052963257
1761141534698543900,10.9865439453125,1.6916790008544922,0.8172945380210876,0.5064328908920288
1761141534708603000,10.996602783203125,1.56752347946167,0.6011142134666443,0.8529546856880188
1761141534718662700,11.00666259765625,1.280906081199646,0.4128553569316864,1.2267768383026123
1761141534728722000,11.016721923828126,0.9099916219711304,0.30589619278907776,1.5404449701309204
1761141534738782000,11.026781982421875,0.49415311217308044,0.3888254463672638,1.7260252237319946
1761141534748841700,11.036841796875,0.10959594696760178,0.7421951293945312,1.721794843673706
1761141534758901000,11.04690087890625,-0.1678769290447235,1.1532412767410278,1.6030648946762085
1761141534768960800,11.056960693359375,-0.3078768253326416,1.416259765625,1.4130264520645142
1761141534779020800,11.067020751953125,-0.25775453448295593,1.3945786952972412,1.2050772905349731
1761141534789079800,11.077079833984374,-0.05763375014066696,1.1553781032562256,0.933625340461731
1761141534799139800,11.087139892578126,0.13713014125823975,0.7625954747200012,0.7141757607460022
1761141534809198800,11.09719873046875,0.3185984790325165,0.3777918517589569,0.7574485540390015
1761141534819259000,11.1072587890625,0.33994343876838684,-0.11362554132938385,0.8680070638656616
1761141534829318700,11.117318603515624,0.27742570638656616,-0.5640445947647095,0.994613528251648
1761141534839378000,11.1273779296875,0.22563442587852478,-0.785764753818512,1.1805106401443481
1761141534849437700,11.137437744140625,0.2269880175590515,-0.6056779623031616,1.4040637016296387
1761141534859497700,11.147497802734375,0.2027314156293869,-0.022003091871738434,1.5256305932998657
1761141534869557000,11.157556884765626,0.11202656477689743,0.6272702217102051,1.397748589515686
1761141534879616800,11.16761669921875,-0.019530927762389183,0.8640220761299133,0.9665454030036926
1761141534889675800,11.17767578125,-0.12731070816516876,0.6829569935798645,0.345039427280426
1761141534899735800,11.18773583984375,-0.15852029621601105,0.4614352285861969,-0.24455004930496216
1761141534909795800,11.1977958984375,-0.1480591595172882,0.41032013297080994,-0.6282883286476135
1761141534919854800,11.207854736328125,-0.13499635457992554,0.5104909539222717,-0.7791212797164917
1761141534929914600,11.21791455078125,-0.11480368673801422,0.6113477349281311,-0.7617722749710083
1761141534939974000,11.227973876953126,-0.09156467765569687,0.5445125102996826,-0.6645535826683044
1761141534950034000,11.238033935546875,-0.02388700842857361,0.36311522126197815,-0.5370222926139832
1761141534960093700,11.24809375,0.0905868336558342,0.2912367880344391,-0.44152209162712097
1761141534970153000,11.258153076171874,0.21628430485725403,0.3209398090839386,-0.3229425847530365
1761141534980213000,11.268212890625,0.2480211853981018,0.4508988857269287,-0.1744503229856491
1761141534990272800,11.278272705078125,0.19792890548706055,0.6117411255836487,0.025310182943940163
1761141535000331800,11.288331787109374,0.13391423225402832,0.7704482078552246,0.1973426640033722
1761141535010391800,11.298391845703126,0.14270639419555664,0.8460593223571777,0.26505792140960693
1761141535020450800,11.308450927734375,0.1711534857749939,0.8518581390380859,0.21351246535778046
1761141535030510800,11.3185107421875,0.4428527355194092,0.5537911653518677,0.0708417296409607
1761141535040570600,11.328570556640624,0.7298240065574646,0.25850945711135864,-0.16789096593856812
1761141535050630000,11.3386298828125,0.8827330470085144,0.45551401376724243,-0.28600063920021057
1761141535060690000,11.34868994140625,0.864536464214325,0.6854718327522278,-0.2839934229850769
1761141535070749700,11.358749755859375,0.6690962910652161,0.1781407743692398,-0.38845622539520264
1761141535080809000,11.36880908203125,0.40876489877700806,-0.5767577886581421,-0.6793064475059509
1761141535090869000,11.378868896484375,0.2585042417049408,-1.0679712295532227,-0.9112603664398193
1761141535100927700,11.388927734375,0.13794320821762085,-1.3536370992660522,-1.017320156097412
1761141535110987800,11.39898779296875,-0.0795537680387497,-1.274869441986084,-1.042750597000122
1761141535121047800,11.4090478515625,-0.30348992347717285,-1.1082860231399536,-0.921570360660553
1761141535131106800,11.41910693359375,-0.48025059700012207,-0.9635253548622131,-0.7354728579521179
1761141535141166800,11.429166748046875,-0.6394889950752258,-0.8932080268859863,-0.634223997592926
1761141535151225900,11.439225830078126,-0.7246545553207397,-0.9329873323440552,-0.5521984696388245
1761141535161286000,11.449285888671875,-0.7100942730903625,-0.9987849593162537,-0.4409973621368408
1761141535171346000,11.459345947265625,-0.5622586011886597,-1.0258466005325317,-0.32894226908683777
1761141535181405000,11.469405029296874,-0.2667052447795868,-0.8872844576835632,-0.24778829514980316
1761141535191465000,11.47946484375,0.028388822451233864,-0.7536975145339966,-0.16086909174919128
1761141535201524700,11.489524658203125,0.20668959617614746,-0.5913043022155762,-0.10500235855579376
1761141535211583700,11.499583740234375,0.23562544584274292,-0.44573360681533813,-0.05042436718940735
1761141535221644000,11.50964404296875,0.1528746336698532,-0.3216465413570404,0.02099015936255455
1761141535231702800,11.519702880859375,0.010653587058186531,-0.24130988121032715,0.1109834685921669
1761141535241762800,11.5297626953125,-0.13801231980323792,-0.2724478244781494,0.21686144173145294
1761141535251822800,11.53982275390625,-0.2757878005504608,-0.3982371687889099,0.3019276559352875
1761141535261881900,11.5498818359375,-0.3773024380207062,-0.5992501378059387,0.3341074287891388
1761141535271942000,11.55994189453125,-0.43484097719192505,-0.7925859093666077,0.3234758675098419
1761141535282001700,11.570001708984375,-0.39424455165863037,-0.8240900039672852,0.28455138206481934
1761141535292061000,11.58006103515625,-0.2800144553184509,-0.7246565222740173,0.16991017758846283
1761141535302121000,11.590120849609375,-0.1587812453508377,-0.5762401819229126,-0.006761806085705757
1761141535312179700,11.6001796875,-0.05671371519565582,-0.4038178622722626,-0.17558635771274567
1761141535322240000,11.610239990234374,-0.016004104167222977,-0.2235434204339981,-0.2958451211452484
1761141535332300000,11.620300048828126,0.037937406450510025,-0.175099179148674,-0.3236244320869446
1761141535342358800,11.63035888671875,0.09217268228530884,-0.1809741109609604,-0.2642008066177368
1761141535352418800,11.640418701171875,0.07135432213544846,-0.08333605527877808,-0.17087121307849884
1761141535362477800,11.650477783203126,0.035120684653520584,-0.033512044697999954,-0.030805988237261772
1761141535372537900,11.660537841796875,-0.029213635250926018,0.014057144522666931,0.10637878626585007
1761141535382598000,11.670597900390625,-0.11545237898826599,0.03217090293765068,0.16419388353824615
1761141535392657000,11.680656982421874,-0.18130405247211456,0.056995242834091187,0.14720405638217926
1761141535402717000,11.690717041015626,-0.19652880728244781,0.13525782525539398,0.0743865892291069
1761141535412775700,11.700775634765625,-0.17272497713565826,0.24483709037303925,-0.02719574235379696
1761141535422835700,11.710835693359375,-0.11216789484024048,0.3571460545063019,-0.13702423870563507
1761141535432896000,11.72089599609375,-0.04753914475440979,0.44225990772247314,-0.24011729657649994
1761141535442954800,11.730954833984375,-0.0025508978869765997,0.4520414471626282,-0.304534375667572
1761141535453014800,11.741014892578125,0.009230517782270908,0.3934783935546875,-0.3238544762134552
1761141535463074800,11.75107470703125,-0.011939749121665955,0.31607362627983093,-0.28681522607803345
1761141535473133800,11.7611337890625,-0.04944001883268356,0.27822721004486084,-0.19613347947597504
1761141535483193900,11.77119384765625,-0.08721322566270828,0.258042573928833,-0.07951657474040985
1761141535493252900,11.7812529296875,-0.11842432618141174,0.21919070184230804,0.04297872260212898
1761141535503313000,11.79131298828125,-0.12339538335800171,0.17094221711158752,0.14339986443519592
1761141535513373000,11.801373046875,-0.09879527240991592,0.11404755711555481,0.20539981126785278
1761141535523431700,11.811431640625,-0.054079730063676834,0.11418125033378601,0.18976226449012756
1761141535533492000,11.821491943359375,-0.01695568859577179,0.21188852190971375,0.10132056474685669
1761141535543550700,11.83155078125,0.0442272424697876,0.30358701944351196,-0.030610570684075356
1761141535553610800,11.84161083984375,0.12041231989860535,0.34400418400764465,-0.14089347422122955
1761141535563670800,11.8516708984375,0.1891130805015564,0.30287405848503113,-0.1307486891746521
1761141535573729800,11.861729736328124,0.19230177998542786,0.2069636732339859,-0.05272460728883743
1761141535583789800,11.871789794921876,0.12748070061206818,0.12187489122152328,0.05132323503494263
1761141535593849900,11.881849853515625,0.03477688878774643,0.12542112171649933,0.1479756236076355
1761141535603908900,11.891908935546875,-0.061344318091869354,0.2433014214038849,0.2150113880634308
1761141535613969000,11.901968994140624,-0.10766492784023285,0.4249657690525055,0.21967461705207825
1761141535624027600,11.912027587890625,-0.11968723684549332,0.5375841856002808,0.14534127712249756
1761141535634087700,11.922087646484375,-0.10502017289400101,0.5079056620597839,0.032717444002628326
1761141535644148000,11.93214794921875,-0.07698880136013031,0.3834228515625,-0.09265805780887604
1761141535654206700,11.942206787109376,-0.04834647849202156,0.250652551651001,-0.20072345435619354
1761141535664266800,11.952266845703125,-0.040072303265333176,0.15682750940322876,-0.2752285897731781
1761141535674326000,11.962325927734375,-0.05664973333477974,0.11680930107831955,-0.3183913230895996
1761141535684385800,11.9723857421875,-0.032433610409498215,0.19208303093910217,-0.31360748410224915
1761141535694445800,11.98244580078125,0.0285964198410511,0.28155964612960815,-0.2760744094848633
1761141535704504800,11.9925048828125,0.09142012149095535,0.29708534479141235,-0.2527983784675598
1761141535714564900,12.00256494140625,0.1446700096130371,0.2796264886856079,-0.27397921681404114
1761141535724625000,12.012625,0.2234220802783966,0.2739044427871704,-0.33808308839797974
1761141535734683600,12.02268359375,0.3262442648410797,0.20802587270736694,-0.3658878803253174
1761141535744744000,12.032743896484375,0.40706881880760193,0.10304246097803116,-0.34387898445129395
1761141535754803000,12.042802978515626,0.45414504408836365,0.11794199794530869,-0.21710659563541412
1761141535764862700,12.05286279296875,0.3193930685520172,0.2795484662055969,0.13201411068439484
1761141535774922800,12.0629228515625,0.19081497192382812,0.06691011786460876,0.33640003204345703
1761141535784981800,12.072981689453124,0.10909215360879898,-0.17459037899971008,0.31371867656707764
1761141535795041800,12.083041748046876,0.10087034851312637,-0.3377280831336975,0.21388143301010132
1761141535805100800,12.093100830078125,0.0914081409573555,-0.3572365343570709,0.09267405420541763
1761141535815160800,12.103160888671875,0.05353633314371109,-0.30426913499832153,-0.04454578831791878
1761141535825220900,12.113220947265624,0.04683502018451691,-0.23818305134773254,-0.1124207079410553
1761141535835280000,12.12327978515625,0.05392427369952202,-0.17595848441123962,-0.09934353083372116
