time,seconds_elapsed,z,y,x
1761140466353638400,0.101638427734375,0.04154547783136368,-0.020376323476620016,-0.0047678171900101
1761140466363697400,0.111697509765625,0.04902151280045509,-0.010733639392396434,-0.00042981538516469295
1761140466373756400,0.12175634765625,0.043778935971856114,-0.006483206273149698,-0.013300686001963912
1761140466383816400,0.13181640625,0.03539572302997112,0.0032397125735878943,-0.0076758318575099104
1761140466393875500,0.14187548828125,0.03838730606138706,0.0011208755224011839,0.0016925653299782425
1761140466403934500,0.1519345703125,0.042426352319121355,0.0037427027928177265,0.0013363266376778483
1761140466413994200,0.161994140625,0.048559155985713004,-0.0062271765523124484,-0.006640725789265707
1761140466424053500,0.172053466796875,0.04751286180317402,-0.005529138685017824,-0.0007572663743980228
1761140466434112300,0.1821123046875,0.03658697864115238,-0.017022665667161343,0.007804636735795066
1761140466444171500,0.192171630859375,0.0385293448805809,-0.0014885945899412035,0.004174509205669165
1761140466454231600,0.2022314453125,0.042864743736386296,-0.017077857319964095,-0.01614535310966894
1761140466464290300,0.212290283203125,0.040616088026762004,-0.020940706760575994,0.011613417901610955
1761140466474349600,0.222349609375,0.04060965828597545,-0.016652526313671843,-0.0006663001553155482
1761140466484409300,0.232409423828125,0.038653263521194456,-0.004881780692189932,-0.010937728863442317
1761140466494468400,0.24246826171875,0.03879822494983673,0.0041873321546241635,-0.0033267332699149846
1761140466504527400,0.25252734375,0.0476227519184351,-0.00436721876617521,-0.008383815730083734
1761140466514586400,0.26258642578125,0.03337444633543491,0.015125873868819325,-0.018403132840665058
1761140466524646400,0.272646484375,0.039347675526142115,0.01150722671393305,-0.005395328838052228
1761140466534705400,0.282705322265625,0.05315700516998768,0.006955481693707406,-0.000660317939100787
1761140466544764200,0.29276416015625,0.027189035698771475,0.012193893803842365,-0.014013181652873753
1761140466554824400,0.302824462890625,0.03660919047296047,0.004088621020503342,-0.009829639757378026
1761140466564883500,0.312883544921875,0.045187633726000785,0.005363079669419676,-0.01881296488372609
1761140466574942500,0.3229423828125,0.05121405440866947,0.014187076915055512,0.00240642182091251
1761140466585001500,0.33300146484375,0.039711248141527176,0.008323463844973594,0.003673071622708812
1761140466595061200,0.343061279296875,0.03510287756323814,0.030232202786952257,0.0063052376240491865
1761140466605120500,0.35312060546875,0.04379354901909828,0.009314173649065196,0.00019866437725722788
1761140466615179300,0.36317919921875,0.04320142834484577,-0.0060600854902528225,0.012565804989309981
1761140466625239300,0.3732392578125,0.044565117913484574,-0.011628862065915018,-0.003558514465484768
1761140466635298600,0.383298583984375,0.052045244535803795,0.010102967672888189,-0.007368556006625294
1761140466645357300,0.393357421875,0.055797290545701976,0.010810494887735694,-0.010603747668722643
1761140466655416600,0.40341650390625,0.03934358387291431,0.0057952788079157465,0.010190819486277177
1761140466665476400,0.413476318359375,0.03739887954592704,0.0037038777529262005,0.021218692584894595
1761140466675535400,0.423535400390625,0.043106151276826855,-0.008985179156716913,0.018500994591414927
1761140466685594400,0.433594482421875,0.0462543861746788,-0.006127670833747834,0.009731924137100577
1761140466695654400,0.443654296875,0.04219546617269516,0.004834635348524898,-0.006873977422714233
1761140466705713200,0.453713134765625,0.045028643772006036,0.012343275679275392,-0.0026426051969639956
1761140466715772400,0.4637724609375,0.04878068978190422,0.008643014655541629,0.011074032061593606
1761140466725831200,0.4738310546875,0.050884968584775925,0.0009838782045058906,-0.0005190737043507397
1761140466735891500,0.483891357421875,0.05207739323973656,0.00469632285637781,0.00952982569374144
1761140466745950500,0.493950439453125,0.04727729948163032,0.012849270706344396,0.003398620329191908
1761140466756009200,0.50400927734375,0.04711480239629745,0.004383274851832539,-0.02847396094277501
1761140466766069500,0.514069580078125,0.02675882758796215,0.0038814993421547113,-0.001130794128216803
1761140466776128300,0.524128173828125,0.041429742497205733,0.0015228621857240796,-0.002344288970669731
1761140466786187500,0.5341875,0.04442833979129791,0.00639370135879144,0.000950450858939439
1761140466796246300,0.544246337890625,0.03320376594364643,-0.0005375774754211307,0.007927148870611562
1761140466806306300,0.554306396484375,0.05115910935103893,0.014306739505659787,-0.008861370113957674
1761140466816365600,0.564365478515625,0.05399988573491573,0.008856712205149234,-0.001532324133813381
1761140466826424300,0.57442431640625,0.05654606308639049,0.0006710676619783043,-0.004242240679636597
1761140466836484400,0.584484375,0.04862520695924759,0.009407185694761573,-0.010484012012882158
1761140466846543400,0.59454345703125,0.03740180215537548,-0.0017084296193905174,-0.003862858573766425
1761140466856602400,0.604602294921875,0.03949614408612251,0.0037280806124210357,0.00122450942681171
1761140466866661400,0.614661376953125,0.04338613726198673,-0.014721713514719157,0.007266136811766773
1761140466876721400,0.624721435546875,0.044130233627557754,0.0013180968612432479,-0.0008172620664816349
1761140466886780400,0.634780517578125,0.032762451916933055,0.01624216454764828,-0.006510961929755285
1761140466896839400,0.64483935546875,0.03890110080242157,0.006736066789366305,-0.000716687768837437
1761140466906899500,0.6548994140625,0.04309153822958469,-0.006844422534666955,-0.003429024600610137
1761140466916958200,0.664958251953125,0.03860883985757828,-0.01730900832787156,-0.005759056717064231
1761140466927017500,0.675017578125,0.04055822035968303,0.01400512621058151,0.0038746129436418413
1761140466937076200,0.685076171875,0.04220423400104046,0.019352131528034805,0.01578429211177863
1761140466947136500,0.695136474609375,0.016152093377709387,0.007847553428914397,-0.009415779993170871
1761140466957195300,0.7051953125,0.05683364785611629,-0.004464614726044237,0.0009781791160814463
1761140466967254500,0.715254638671875,0.0487596469938755,0.00005078033916652202,-0.0014041768426541238
1761140466977314600,0.725314453125,0.03619125732183456,0.017161800143215805,0.0033132527338340877
1761140466987373300,0.735373291015625,0.03708849842250347,-0.00038291663667187095,-0.0010909187755547463
1761140466997432600,0.7454326171875,0.024065935242176054,-0.013959314307477324,-0.010822906844737008
1761140467007491300,0.7554912109375,0.0553431170374155,-0.0025635668776929376,0.012072788174822926
1761140467017551400,0.76555126953125,0.0457663103967905,0.010199505116231739,-0.0020469865245278922
1761140467027610400,0.7756103515625,0.030358313384652134,0.0064625653439201415,0.020162991253193468
1761140467037669400,0.78566943359375,0.050855157968401905,-0.007904562579467892,-0.005362093288730829
1761140467047729400,0.7957294921875,0.036491701573133466,0.008773399569559841,0.006957691917102784
1761140467057788400,0.805788330078125,0.04322831635177135,-0.0038842027558945117,0.01812405103780329
1761140467067847400,0.815847412109375,0.04741875377893447,-0.016077877364028246,0.003477302455436438
1761140467077906400,0.825906494140625,0.046968671923875806,-0.003525836038589477,0.0006135561879258602
1761140467087966500,0.835966552734375,0.03978372885584831,-0.0076295998292975125,-0.007101484301965683
1761140467098025200,0.846025146484375,0.0275146143913269,0.00652061567408964,0.0020266469893977044
1761140467108084500,0.85608447265625,0.049207390761375425,0.01445716256070882,0.0020995752282906323
1761140467118144300,0.866144287109375,0.044566286957263945,0.0024654767980799076,0.002717104338435456
1761140467128203500,0.87620361328125,0.045914778956770895,0.007186842764168977,-0.007145789234573021
1761140467138262300,0.88626220703125,0.042620413586497305,0.005171283424366265,0.007564991894178092
1761140467148321300,0.8963212890625,0.04875438629686832,-0.0025136267887428403,0.002239979212824255
1761140467158381600,0.906381591796875,0.03514262505173683,0.003244991536904126,-0.010008019398432225
1761140467168440300,0.9164404296875,0.06133505092859268,0.0021084252550266683,0.0039829686889424915
1761140467178499600,0.92649951171875,0.04158873245120048,0.004626052365452051,0.0035034324105363336
1761140467188559400,0.936559326171875,0.03979775738120079,-0.0009594744156114757,0.007181691665016115
1761140467198618400,0.946618408203125,0.044882513299584384,0.006241104612965136,-0.001930794532643631
1761140467208677400,0.956677490234375,0.04922317285239696,-0.0036942514080554245,-0.0021887148164678365
1761140467218736400,0.966736328125,0.04069558300375938,-0.0062864233257248995,-0.0012510229744017124
1761140467228796400,0.97679638671875,0.03755143975913525,0.004588862160220742,-0.01711294689965434
1761140467238855400,0.98685546875,0.041593993148207664,0.01743692729016766,-0.002905128590669483
1761140467248914400,0.99691455078125,0.03545826687216758,0.016561952820234,0.0014492489602416752
1761140467258973400,1.006973388671875,0.0397971728593111,-0.003852346312906593,0.00011534260851331055
1761140467269033500,1.017033447265625,0.02767418886721134,-0.00037360081905499096,-0.006925917672505602
1761140467279092200,1.02709228515625,0.04473462926149368,0.00881369504733011,0.005801224491512403
1761140467289151500,1.0371513671875,0.03934650648236274,-0.000388560926169157,-0.0017870386803988366
1761140467299211300,1.047211181640625,0.029918168401718136,-0.006476758266054094,-0.015572165464749559
1761140467309270300,1.057270263671875,0.0504196891605854,-0.00614580927863717,-0.013153185556363314
1761140467319329500,1.06732958984375,0.03650689914226532,0.004551270096190273,-0.006451779088424518
1761140467329388300,1.07738818359375,0.04743044421672821,0.010753851063363254,-0.0023754056281410155
1761140467339448600,1.087448486328125,0.06029869361817836,0.005829217610135674,-0.015136888453178107
1761140467349507300,1.09750732421875,0.053417117410898204,0.005371354307420552,-0.010804320875275879
1761140467359566300,1.10756640625,0.05596154119670391,0.011884480794798582,-0.009330595060903578
1761140467369626400,1.11762646484375,0.04832885436117649,0.0007914426386356353,-0.0012021879971493034
1761140467379685400,1.127685302734375,0.04279284754395485,-0.005748663187213242,-0.0048083683961071075
1761140467389744400,1.137744384765625,0.054763855844736094,-0.004987305159587413,0.015627512381179258
1761140467399803400,1.147803466796875,0.04578793770670891,0.005186261797789484,-0.011270741943782196
1761140467409863400,1.157863525390625,0.04639116429686546,-0.00921211978038773,-0.0032047599912155417
1761140467419922400,1.16792236328125,0.05701894129514694,0.003558386601321399,0.003837568868882954
1761140467429981400,1.1779814453125,0.035172435668110846,-0.014414218468125909,-0.011232154365908353
1761140467440041200,1.188041259765625,0.04400689950883388,-0.0007115823354572057,0.00019072766597382724
1761140467450100500,1.1981005859375,0.04041676606237888,0.007523563905246555,0.012291362828947603
1761140467460159200,1.2081591796875,0.0318891762137413,-0.003996357893478125,0.012254355286806821
1761140467470218500,1.218218505859375,0.03263385710120201,-0.009167001997027545,0.005770007369341328
1761140467480278500,1.228278564453125,0.03952069400548935,-0.008519881466217339,-0.0036602669400628654
1761140467490337300,1.238337158203125,0.04670154542028904,-0.004607365931291133,0.00469787549264729
1761140467500396500,1.248396484375,0.04266191464066505,0.004188026274368166,-0.002639792185369879
1761140467510456300,1.258456298828125,0.03128711866736412,-0.009151658297423274,-0.014500572444172575
1761140467520515300,1.268515380859375,0.038918636459112164,0.006656809274386614,0.00697022260511294
1761140467530574300,1.27857421875,0.0609159487336874,0.0018996230762451886,0.004476186432829127
1761140467540633300,1.28863330078125,0.056126376369595526,-0.0004865596742369234,0.007821743134222923
1761140467550693400,1.298693359375,0.0463981785595417,-0.014743523487728089,0.0032937077831476924
1761140467560752400,1.30875244140625,0.03950549643635749,-0.013617515132483094,-0.008116661827033385
1761140467570811400,1.318811279296875,0.049828737530112265,0.003523370086867362,0.0027579934712499378
1761140467580870400,1.328870361328125,0.038303134909272195,0.01601345209199935,-0.0010331241737119852
1761140467590930400,1.338930419921875,0.0321679931551218,0.0012469313211739062,0.005297320956829935
1761140467600989400,1.348989501953125,0.03680208269655704,0.0028796105569228528,-0.009615001492854207
1761140467611048400,1.35904833984375,0.033055297383666034,0.0015308810953982173,-0.0060404583411756895
1761140467621108200,1.369108154296875,0.051154433175921436,-0.0020082710824906825,0.00827283876943402
1761140467631167500,1.37916748046875,0.04725508764982223,0.0064021403935737905,-0.003402629784028977
1761140467641226200,1.389226318359375,0.048749125599861144,-0.009466825193818657,-0.006406414709892123
1761140467651285500,1.399285400390625,0.03782558052539825,-0.005436181438248604,-0.007759482419816777
1761140467661345500,1.409345458984375,0.0493523521900177,0.005053319600503891,-0.009829320096969603
1761140467671404300,1.419404296875,0.0373790058016777,-0.005726597485877573,-0.01018206992424093
1761140467681463600,1.429463623046875,0.04276771310269832,-0.0078092307125218205,0.0055242341810371725
1761140467691523300,1.4395234375,0.04306815735399723,-0.007341503602918237,-0.002124335210211575
1761140467701582300,1.449582275390625,0.03438625372648239,0.0003096504710614681,0.009524775059288367
1761140467711641300,1.459641357421875,0.045461189970374107,0.007020838547497988,-0.006370000822795555
1761140467721700400,1.469700439453125,0.06341594885587692,-0.004661324608232826,-0.0010582129491958766
1761140467731760400,1.479760498046875,0.04830255087614059,-0.009140314919501543,-0.0011556454416830092
1761140467741819400,1.4898193359375,0.03813186999559402,-0.0015050342680886387,-0.010540464041009544
1761140467751878400,1.49987841796875,0.0424766212016344,-0.001811068009957671,0.009155485089169815
1761140467761938400,1.5099384765625,0.030060791742801664,-0.005686594269052147,0.003077845675917342
1761140467771997400,1.51999755859375,0.03710544955730438,0.0007641162402927875,0.006266659179329872
1761140467782056400,1.530056396484375,0.03486380811035633,-0.0010376542183570562,-0.0021442637533880767
1761140467792115500,1.540115478515625,0.03890694602131843,0.004288326577376574,-0.001257434448879212
1761140467802175200,1.55017529296875,0.04504384134113788,0.001533200916647911,-0.00595982171986252
1761140467812234500,1.560234375,0.05551672003865242,0.0007755326834507286,-0.018810626796167344
1761140467822293200,1.570293212890625,0.03426584221720695,0.008700169936567545,0.004982245391979813
1761140467832353300,1.580353271484375,0.03097206136882305,0.010809271045029163,0.014602671978622674
1761140467842412300,1.590412353515625,0.03875204772055149,-0.005687361454032361,0.007475961903855204
1761140467852471000,1.600470947265625,0.041595746713876725,0.0006708301999606192,0.0017068130510393528
1761140467862530300,1.6105302734375,0.040246670192480086,0.01788331935079768,-0.006984698655037209
1761140467872590000,1.620590087890625,0.0409954427331686,0.008598572725616396,0.004651205073017627
1761140467882649000,1.630649169921875,0.05491232440471649,-0.008596289436984806,-0.004026990493759513
1761140467892708000,1.6407080078125,0.046831893801689145,-0.0006483626398257911,-0.004752272561006248
1761140467902767000,1.65076708984375,0.04129471794068813,-0.008599960965104401,0.00789795930874534
1761140467912827100,1.6608271484375,0.04114508033692837,0.00971411448577419,-0.010642965434258803
1761140467922886100,1.67088623046875,0.033362171375751495,0.003883252907823771,0.0022716347264125944
1761140467932945000,1.68094482421875,0.03859773394167423,0.012435721469391137,0.007810271892137825
1761140467943005200,1.691005126953125,0.027830256211757658,0.006414269222784787,-0.000022768954234197735
1761140467953064200,1.701064208984375,0.0383072265625,-0.007296331020630896,-0.012233604759722948
1761140467963123200,1.711123291015625,0.04863046765625476,-0.001631290996260941,0.0035226577008143065
1761140467973182200,1.72118212890625,0.04997837513387203,-0.011321531416103243,0.002260839337762445
1761140467983242000,1.731241943359375,0.0386035791605711,0.006075429189857095,0.00781965164183639
1761140467993301200,1.74130126953125,0.048483752661943436,0.011487426034919916,-0.01072939247554168
1761140468003360000,1.751360107421875,0.04339665865600109,-0.000673259619064629,0.004222403468005359
1761140468013420000,1.761419921875,0.04144961624145507,-0.0013511406143195926,0.0012078505529556423
1761140468023479300,1.771479248046875,0.04384440242350101,0.005526654466986656,0.001095439687045291
1761140468033538000,1.7815380859375,0.03965688760578632,0.014281824260111898,-0.008865388701949268
1761140468043597300,1.791597412109375,0.03890811506509781,0.022780224546883252,0.004227718963939696
1761140468053657000,1.801656982421875,0.04593932887613773,0.008774385950248688,0.020314099294831973
1761140468063716000,1.811716064453125,0.04848492170572281,0.004517952348478138,-0.00221297247488983
1761140468073775000,1.821775146484375,0.036816695743799206,0.007523344709537923,-0.017637016439530997
1761140468083834000,1.831834228515625,0.034873160460591315,-0.0021294497767463325,-0.00744727466548793
1761140468093894100,1.84189404296875,0.042653146812319756,0.015160287595074623,-0.011073210077686234
1761140468103953200,1.851953125,0.04085749556720256,0.004171422199439257,0.0018647526922635732
1761140468114012200,1.86201220703125,0.054027358263731,0.0056791598812676964,-0.003555975448526442
1761140468124072200,1.872072265625,0.05103577523231506,0.004787197743915021,-0.0014331563419662414
1761140468134131200,1.882131103515625,0.057769467401504515,-0.0056168169684708115,-0.0036228940717410296
1761140468144190000,1.89218994140625,0.03607084581255913,-0.0011839856201782822,-0.016296342420298607
1761140468154249200,1.902249267578125,0.03592471534013748,0.006464757301006466,0.0010561488562729209
1761140468164309000,1.91230908203125,0.04445405875444412,0.0006776435332372785,0.0036485399696510284
1761140468174368300,1.9223681640625,0.04520633842647075,-0.00915076324827969,0.007880807244544848
1761140468184427000,1.932427001953125,0.04371230047643184,0.008594992529042065,0.0063083976955153045
1761140468194486000,1.942486083984375,0.03129413293004036,0.018907712228782472,0.007094734900770708
1761140468204546300,1.95254638671875,0.04296528150141239,-0.0006672317370772362,0.005920174696063623
1761140468214605000,1.96260498046875,0.043263387665152545,0.004379037068132311,0.0014453125706408172
1761140468224664300,1.972664306640625,0.03398702527582645,-0.005030139654316008,-0.0033689284438267347
1761140468234724000,1.98272412109375,0.042215924438834186,-0.0013037030097097157,-0.009425132343405857
1761140468244783000,1.992783203125,0.052989831909537315,0.0005722469300031662,0.011034257173631339
1761140468254842000,2.002842041015625,0.03488134376704693,0.000878938258998096,0.00523382726656273
1761140468264901000,2.012901123046875,0.03937280996739864,0.010330511084757745,-0.0014848225971218197
1761140468274961200,2.022961181640625,0.06062076517939567,0.0061887533712200815,0.002839296812843531
1761140468285020200,2.033020263671875,0.05343874472081661,-0.0014258315520361065,-0.001476547959120944
1761140468295079200,2.0430791015625,0.044911739394068714,0.01409119705883786,-0.008374189385212958
1761140468305139000,2.053138916015625,0.028604163193702695,0.003123319652304053,-0.004152854496287182
1761140468315198200,2.0631982421875,0.03593640577793121,0.014933054710458964,0.01453253848501481
1761140468325257000,2.073257080078125,0.04237140726149082,-0.0039606107266619795,0.0007598875897470861
1761140468335316200,2.083316162109375,0.049852702927589414,-0.00422044897293672,0.0017959343729075043
1761140468345376000,2.0933759765625,0.04446458014845848,0.00496149486489594,0.007757144332258031
1761140468355435000,2.10343505859375,0.050151393613219256,-0.0030639541478827592,0.0010978325735311954
1761140468365494300,2.113494384765625,0.05045242238640785,0.003657773588877171,-0.00415240697171539
1761140468375553000,2.123552978515625,0.05075228211581707,-0.009143785518221557,-0.015600450844317673
1761140468385613300,2.13361328125,0.03683598496615886,0.003162610483076423,-0.003248453002469614
1761140468395672000,2.143672119140625,0.04252279843091965,0.01645637355390936,0.007698381616035476
1761140468405731300,2.1537314453125,0.047160395103693006,0.013071790883224457,0.00035234796847216784
1761140468415791000,2.163791015625,0.04342062405347824,-0.016689981380384415,0.004877442443789914
1761140468425850000,2.17385009765625,0.05958206978142261,-0.0033081929662264883,0.014376599004631861
1761140468435909000,2.1839091796875,0.04461830940544605,-0.003655106707755476,0.0017609178584534675
1761140468445968100,2.193968017578125,0.03145312288403511,0.0002524586574174464,0.0018071407535113393
1761140468456028200,2.204028076171875,0.04327507810294628,-0.005746416431199759,-0.007835844724811613
1761140468466087200,2.214087158203125,0.052103112202882766,-0.015145126558560876,-0.014874602521490305
1761140468476146200,2.224146240234375,0.042378421524167056,-0.005836378003284335,-0.0012628504095133393
1761140468486206000,2.2342060546875,0.05629471867382526,-0.004877926500979811,0.018404219686053692
1761140468496265200,2.24426513671875,0.040730069795250894,0.012625124827958642,0.0012823131618089974
1761140468506324000,2.254323974609375,0.047910336688160894,0.0037749336951412257,-0.008350169188808649
1761140468516383200,2.26438330078125,0.05359364302158355,-0.001281966101936996,-0.0022127532791811973
1761140468526443300,2.274443359375,0.03712999947667121,-0.01059767412096262,0.0015539240442682056
1761140468536502000,2.284501953125,0.033984687188267707,0.0016319485833868384,-0.011129826502595096
1761140468546561300,2.294561279296875,0.036080782684683795,-0.0022433767463080584,-0.007267534184409305
1761140468556620000,2.3046201171875,0.038923312634229656,-0.01234913916448131,-0.007230426177568733
1761140468566680300,2.314680419921875,0.05044716168940067,0.003470616986323148,0.003565738790715113
1761140468576739000,2.324739013671875,0.03174363026320934,0.0103727427912876,-0.005612825779942795
1761140468586798000,2.334798095703125,0.03952361661493778,0.009106540514063089,0.0018493085279595106
1761140468596858000,2.344858154296875,0.023961305823922155,0.006846431828662753,-0.0044419005707371974
1761140468606917000,2.354917236328125,0.04595628001093864,0.0005042414613999426,-0.002678133168071508
1761140468616976100,2.36497607421875,0.04565992741286754,0.00006312836408615112,-0.005886930013587698
1761140468627035100,2.37503515625,0.04072422457635402,-0.00924224092401564,-0.006215358250355347
1761140468637095200,2.38509521484375,0.04401508281528949,0.004041110350657255,-0.0011392605624627322
1761140468647154200,2.395154296875,0.05972352407872677,0.0027953298069536684,-0.00094498923253268
1761140468657213200,2.405213134765625,0.03323708369135856,0.011199074080213903,-0.00786384697658941
1761140468667272200,2.415272216796875,0.0372790525585413,0.005102803031727671,-0.0014212193090002983
1761140468677332200,2.425332275390625,0.04131868333816528,0.011530004801321775,-0.0065900367816444485
1761140468687391000,2.435390869140625,0.04969955819249153,0.001711005168966949,-0.009420949358632788
1761140468697450200,2.4454501953125,0.04311550362706184,0.007707706566806882,0.010310427277954295
1761140468707510300,2.45551025390625,0.04401157568395137,0.010448493174929172,-0.0024532018383964893
1761140468717569000,2.465569091796875,0.046855859199166294,0.0003974200860597193,0.004027986007602885
1761140468727628300,2.475628173828125,0.04206862492263317,0.005593984082154929,-0.011492485802527517
1761140468737687000,2.48568701171875,0.03129588649570942,0.008403671208024025,0.0006369827292859554
1761140468747747000,2.4957470703125,0.035786768174171445,-0.00441730498559773,-0.01641492729866877
1761140468757806000,2.50580615234375,0.05629062702059746,-0.004538337549380958,0.004511814868636429
1761140468767865000,2.515864990234375,0.04267594316601753,-0.010890702250786125,0.0023915530453436076
1761140468777924000,2.525924072265625,0.04671498942375183,-0.012942775942385196,0.004121683039888739
1761140468787984100,2.535984130859375,0.030255437532067296,0.019002989296801387,-0.006371608257992193
1761140468798043100,2.546043212890625,0.0510556489765644,-0.002595331989135593,0.003748200951842591
1761140468808102100,2.55610205078125,0.03983458226025104,-0.008578169258404522,0.0017514467772096393
1761140468818162200,2.566162109375,0.048365094718337054,0.006997676867619157,0.017090826399391516
1761140468828221200,2.57622119140625,0.05001169288158416,-0.0019252141752280293,0.013018964717444032
1761140468838280200,2.5862802734375,0.046719081076979634,0.005361965424567461,0.00754476195690222
1761140468848339200,2.596339111328125,0.04357727591991424,-0.020239180028252302,0.0012616904988884926
1761140468858399200,2.606399169921875,0.042080315360426904,0.00008110241219401359,0.003129603262618184
1761140468868458200,2.616458251953125,0.04462532366812229,-0.004228193887975067,-0.0063570226102136074
1761140468878517200,2.626517333984375,0.02950900307893753,-0.009058883713744581,-0.008978320157667622
1761140468888576300,2.636576171875,0.04941080437898636,0.011880535272043198,0.008172922058915719
1761140468898636000,2.646635986328125,0.041326282122731206,0.004514043358340859,-0.0030516609218902884
1761140468908695300,2.6566953125,0.04566518810987472,0.0006572583323344588,-0.00009631824763491749
1761140468918754000,2.666754150390625,0.047911505731940265,0.006803268540371209,-0.005505867407284677
1761140468928814000,2.67681396484375,0.050451837864518165,-0.005257445604167878,-0.011816256130486726
1761140468938873300,2.686873291015625,0.04611117831170559,-0.0014972710867412386,-0.015766802120860665
1761140468948932000,2.69693212890625,0.041622050198912616,-0.009012158495187758,-0.008805073349457234
1761140468958991400,2.706991455078125,0.04072130196690559,-0.005159209394082427,-0.005871768977073952
1761140468969051100,2.717051025390625,0.04610533309280872,-0.0017654935688711701,-0.003894477554736659
1761140468979110100,2.727110107421875,0.04745031796097755,0.000874773540534079,-0.01005575839714147
1761140468989169200,2.737169189453125,0.044456396842002865,0.00837501136912033,0.00992225907742977
1761140468999228200,2.747228271484375,0.03682429452836513,-0.005257536935713142,-0.001352601919043809
1761140469009288200,2.7572880859375,0.04131517620682716,-0.0019594452383928,-0.012742969920812175
1761140469019347200,2.76734716796875,0.0450561163008213,-0.004522993849776685,-0.015324766574939712
1761140469029406000,2.777406005859375,0.0437140540421009,-0.00724566027931869,-0.0017023286721669136
1761140469039466200,2.78746630859375,0.046858197286725044,0.005736406493838876,0.0015372286377940325
1761140469049525200,2.797525146484375,0.026805589339137077,-0.0133117371189408,-0.004098795354645699
1761140469059584300,2.807584228515625,0.0372790525585413,0.005395283172279596,-0.010750946720223873
1761140469069643300,2.817643310546875,0.05673194104731082,-0.012949497944116591,0.004065550672169775
1761140469079703000,2.827703125,0.0426642527282238,-0.0009330795990303159,0.005471015289612114
1761140469089762300,2.83776220703125,0.03009235592484474,0.011433650021068751,-0.0022270740654785183
1761140469099821000,2.847821044921875,0.04131517620682716,0.0024226605696603654,0.006852057851850986
1761140469109880300,2.85788037109375,0.03323240751624107,-0.002504128308035433,-0.0037875557146966454
1761140469119940400,2.8679404296875,0.05148819517493248,-0.001226454788725823,0.007976376573508605
1761140469129999000,2.8779990234375,0.041160862427949904,0.0021946239674463866,-0.006975200174329802
1761140469140058400,2.888058349609375,0.04819441432654857,0.012095000006631017,0.005034359171707183
1761140469150118100,2.8981181640625,0.0290396320015192,-0.0060455637745559215,0.004720918441517279
1761140469160177200,2.90817724609375,0.04190671235918998,0.0050489904852584,0.008349602933228015
1761140469170236200,2.918236083984375,0.04056055844724178,0.0011280176492407918,-0.00046604660917073487
1761140469180295200,2.928295166015625,0.05193243181109428,-0.007524732949025928,-0.005156168053625151
1761140469190355000,2.93835498046875,0.02888765631020069,0.0068128766189329325,0.007353550233738497
1761140469200414200,2.948414306640625,0.0399585009008646,-0.0023891966914758086,-0.003984366061585024
1761140469210473000,2.958472900390625,0.042653146812319756,0.003409406584687531,-0.013813192968210205
1761140469220532200,2.9685322265625,0.04819032267332077,0.007620667604170739,-0.013556478260783478
1761140469230592300,2.97859228515625,0.049236616855859755,-0.011989694734942167,-0.011900993538182228
1761140469240651000,2.988651123046875,0.05522153648436069,0.008406630350090562,-0.014121226870920508
1761140469250710300,2.998710205078125,0.04444704449176788,-0.007323456489574164,-0.008347246579360217
1761140469260770000,3.00877001953125,0.024693711751699446,-0.004179751636367291,-0.006181784774316475
1761140469270829300,3.018829345703125,0.03636310675740242,0.0010337817608378826,-0.014595739914337172
1761140469280888000,3.02888818359375,0.04548807797729969,-0.007588555432856083,-0.00964424585364759
1761140469290947000,3.038947021484375,0.05820493620932102,0.002157780822087079,0.004144506793050095
1761140469301007400,3.04900732421875,0.0423415966451168,-0.008516155139170586,-0.020113590020360422
1761140469311066000,3.059066162109375,0.03396247535645962,0.003463968049827963,-0.012271397753152996
1761140469321125400,3.06912548828125,0.04772913490235805,0.002802745928429067,0.006841161998501047
1761140469331184000,3.07918408203125,0.034109774872660634,-0.006001395839266479,0.00032704913043417035
1761140469341244200,3.089244140625,0.040241994017362594,-0.003314677505940199,-0.02247735087648034
1761140469351303200,3.09930322265625,0.046373628640174865,-0.013081618157494812,-0.010499949367530643
1761140469361362200,3.109362060546875,0.033055297383666034,-0.0028348763660527763,0.011089658888988196
1761140469371422200,3.119422119140625,0.033950784918665884,-0.002403700140863657,0.0003004807839170098
1761140469381481200,3.129481201171875,0.03903729440271854,-0.004331362001504749,-0.027554425811907274
1761140469391540200,3.139540283203125,0.056397010004520416,0.003087627284415066,0.006334007060807198
1761140469401599200,3.14959912109375,0.04532674993574619,0.010275803489144891,-0.00094498923253268
1761140469411659300,3.1596591796875,0.03590133446455002,0.0028630430146120486,-0.004362789186229929
1761140469421718000,3.169718017578125,0.06552899548709393,-0.011327084374055265,0.0035566513019613917
1761140469431777300,3.17977734375,0.06523088932335376,0.009325115168187766,-0.016383436181861905
1761140469441836000,3.1898359375,0.04143909484744072,0.013761161386873572,0.004668512400845065
1761140469451896000,3.19989599609375,0.051314592173695564,0.012824958248995244,-0.0038162064204458144
1761140469461955000,3.209955078125,0.03949146791100502,0.013652440315391867,-0.0006788856422528624
1761140469472014000,3.22001416015625,0.03320844211876392,-0.00029237054269760844,-0.003753324651531875
1761140469482074400,3.230074462890625,0.03994271880984306,-0.013330021694302557,-0.007168640387197956
1761140469492133000,3.240133056640625,0.04547580301761627,-0.0009883534502238035,-0.020510452983994034
1761140469502192400,3.2501923828125,0.05429916094243526,-0.0038642376800999043,-0.002830592916579917
1761140469512251100,3.260251220703125,0.03230126414597034,0.005860197270289063,-0.0037818840257357804
1761140469522311200,3.270311279296875,0.03559095334112644,0.00350499417996034,0.006740605967165902
1761140469532370200,3.2803701171875,0.04322071756720543,0.004613229416497051,0.005468184011708945
1761140469542429200,3.29042919921875,0.03468962058722973,-0.005035400351323187,0.000029098230320960283
1761140469552488200,3.30048828125,0.04665887532234192,0.01622570660319179,-0.002877756526554003
1761140469562548200,3.31054833984375,0.03782733409106731,-0.008327646829746663,0.00246677370602265
1761140469572607200,3.320607177734375,0.04396306036710739,0.003383559757377952,-0.006116245257435366
1761140469582666200,3.330666259765625,0.044266427227854725,0.015736297384742647,0.004711575224436819
1761140469592726300,3.340726318359375,0.0508510663151741,-0.0024388445194810627,0.002595067127654329
1761140469602785000,3.350784912109375,0.04157470392584801,-0.008803374582715332,-0.01264806731212884
1761140469612844300,3.36084423828125,0.041723172485828394,0.004132295765448361,-0.005644143366813659
1761140469622903000,3.370903076171875,0.03199439015388489,0.000220200355630368,-0.003868575928499922
1761140469632963000,3.380963134765625,0.03588496785163879,-0.004520984555780887,-0.006119177000038325
1761140469643022000,3.39102197265625,0.06147182905077934,0.015254998407512902,-0.00618074359470047
1761140469653081000,3.4010810546875,0.04366670776903629,0.0075032700358889995,0.0016076178597286342
1761140469663140000,3.41114013671875,0.050400399938225746,-0.004015756713692099,0.0019143548544961959
1761140469673200000,3.4212001953125,0.03722936819791794,0.013485888109449297,-0.008004625420458614
1761140469683259100,3.431259033203125,0.05443710810840129,0.00542339502191171,-0.009484854040853679
1761140469693318100,3.441318115234375,0.048450434914231295,0.021397026560176162,0.002367468916857615
1761140469703377200,3.451377197265625,0.05338438418507575,0.007864468031097202,0.010224456894397735
1761140469713437200,3.461437255859375,0.04530220001637936,-0.001767685525957495,0.0031879367205779998
1761140469723496200,3.47149609375,0.05562661015391349,-0.00867193022277206,0.009558668195735663
1761140469733555200,3.48155517578125,0.03736789988577366,0.0016827106562443076,-0.010189239450544119
1761140469743614200,3.4916142578125,0.037816228175163266,0.01249298634827137,-0.01183845882914029
1761140469753674200,3.50167431640625,0.036621465432643885,-0.005620214501954615,-0.007683576772548258
1761140469763733200,3.511733154296875,0.04784428571462631,-0.004930953596159815,-0.006731564144184812
1761140469773792300,3.521792236328125,0.04185644347667694,0.0008551920572295785,0.004430246665561572
1761140469783852000,3.53185205078125,0.032878187251091,0.0030099772046320136,-0.015546309504285453
1761140469793911300,3.541911376953125,0.048887072765827176,0.01643275521630421,-0.0007513480902649462
1761140469803970000,3.551969970703125,0.04095394167900085,0.004655150595773011,0.005367408784665167
1761140469814029300,3.562029296875,0.0330219796359539,-0.000895944192726165,-0.005934650745987892
1761140469824089300,3.57208935546875,0.027785832548141477,0.0041257564268074925,-0.007432159294746815
1761140469834148000,3.582148193359375,0.03227612970471382,0.007789466566126793,-0.0014719174497760832
1761140469844206800,3.592206787109375,0.05801321302950382,-0.006422087203059345,0.0061091122637502845
1761140469854265900,3.602265869140625,0.049182840842008586,0.0013360161104239523,0.005240403137821704
1761140469864326000,3.612325927734375,0.03930734351575375,-0.000514708056487143,0.0019369868114124983
1761140469874385000,3.622385009765625,0.04274783935844898,0.004645816511847078,0.004484689399693161
1761140469884444000,3.63244384765625,0.03585983341038227,0.003231602332368493,0.00633793431725353
1761140469894504000,3.64250390625,0.04438800778090954,0.004183934621140361,0.00016909122290089724
1761140469904563000,3.65256298828125,0.05725684170424938,0.0070835102538578205,0.00186901787542738
1761140469914622000,3.6626220703125,0.03660626786351204,-0.00020299349250271916,-0.00263558180113323
1761140469924681000,3.672680908203125,0.03017126637995243,-0.0020785233071073887,-0.015302700873604044
1761140469934741000,3.682740966796875,0.036305239090323446,-0.002406476619839668,-0.006583424377767369
1761140469944800000,3.692800048828125,0.044833413460850714,0.005455032269190996,-0.0017894407000392674
1761140469954859000,3.70285888671875,0.04782675005793571,0.0026554646785371004,0.0012347933588083833
1761140469964918000,3.71291796875,0.05006897602677345,0.0017839608073234557,0.0067563697918783866
1761140469974978000,3.72297802734375,0.040941082197427744,-0.0021709690972231328,-0.017389380087703465
1761140469985036800,3.733036865234375,0.05575637401342392,-0.0010976590435951947,0.013223081587953493
1761140469995096000,3.743095947265625,0.043488428592681885,0.0015305523018352687,0.021988288717903197
1761140470005154800,3.75315478515625,0.03915010712742805,-0.001729929065145552,-0.00676269906796515
1761140470015214800,3.76321484375,0.04707973108291626,0.003282364405225962,-0.01437129264185205
1761140470025274000,3.773274169921875,0.03959901993870735,0.0009960070337168873,0.010196783436182886
1761140470035332900,3.783332763671875,0.03750409348607063,0.0019076785185374319,-0.010134175661904736
1761140470045393000,3.793392822265625,0.037353286838531494,0.016368841400928796,0.0033681247262284156
1761140470055452000,3.803451904296875,0.033013211807608606,0.004326320500206202,-0.006465780214313418
1761140470065511000,3.813510986328125,0.04243979632258415,0.011778298740275204,-0.001905842754477635
1761140470075570000,3.82356982421875,0.039891865405440326,-0.001360730426572263,-0.004074948688177392
1761140470085630000,3.8336298828125,0.03510112399756908,0.014949275192897765,0.00564394243741408
1761140470095688700,3.843688720703125,0.04123685027360916,0.0037094672434963283,-0.008867827254207804
1761140470105748000,3.853748046875,0.038839141482114786,-0.006934621568769216,0.011709553486155346
1761140470115806700,3.863806640625,0.028511808735132215,0.006473945254459977,0.00024092348325066267
1761140470125867000,3.873866943359375,0.03315057445168495,0.012423556107562034,-0.005803261184971779
1761140470135926000,3.883926025390625,0.04691723399758339,-0.010808083734940736,-0.005559086298709735
1761140470145984800,3.89398486328125,0.046319852626323696,-0.007407846837397664,-0.019720553848473352
1761140470156044000,3.9040439453125,0.04287643417418003,0.011199969129357487,-0.016356018451973795
1761140470166103800,3.914103759765625,0.04033025682270527,0.01673119017360732,0.01446560159549117
1761140470176163000,3.9241630859375,0.043324177941679955,0.00156262794053182,0.007461988177429884
1761140470186221800,3.934221923828125,0.035092356169223786,0.006684683662001043,0.0008044847832992672
1761140470196281900,3.94428173828125,0.03718552905619144,-0.0059812481003813445,-0.0025830296299885957
1761140470206341000,3.954341064453125,0.05304653053283691,-0.0031913981861434876,0.017265397515008225
1761140470216400000,3.96439990234375,0.056935939186811446,-0.0007959726832807064,-0.0016639785563107579
1761140470226459100,3.974459228515625,0.027307109120488164,0.0035569435629062354,-0.022348920457530765
1761140470236519000,3.984518798828125,0.045565234866738316,0.015273118586093187,-0.015547177153965457
1761140470246578000,3.994577880859375,0.05035480723083019,0.00026825901474803685,0.002999309680145234
1761140470256637000,4.004636962890625,0.03733516665995121,0.008134919002931564,-0.0054148098566569386
1761140470266696000,4.014696044921875,0.029702479824423787,-0.011559577955678104,-0.004829566447762773
1761140470276755700,4.024755615234375,0.050800797432661055,-0.0009206585088744758,-0.0010953757549636066
1761140470286815000,4.03481494140625,0.036136312264204024,-0.005777195161953568,0.0029716088224668053
1761140470296873700,4.044873779296875,0.02790390596985817,0.002183244056906551,-0.002694271452119574
1761140470306933000,4.05493310546875,0.03912964886128902,0.021620843644998965,-0.012642313424777238
1761140470316993000,4.064992919921875,0.0440671052634716,-0.003650649728346616,-0.012706848294660449
1761140470327051800,4.0750517578125,0.043915714094042775,-0.003302311214711517,0.0005423632483929395
1761140470337111000,4.085111083984375,0.03793079446554184,0.008871982839517295,-0.007439456685213372
1761140470347170800,4.0951708984375,0.04571370342671871,-0.008090842399187385,0.00007990596895106137
1761140470357229800,4.105229736328125,0.040778585112094874,0.004175477320048958,0.006126666186749935
1761140470367288800,4.115288818359375,0.04197743950784206,0.004941000066138804,-0.008103190424107015
1761140470377347800,4.125347900390625,0.0394312621563673,-0.007341193075664341,-0.004792851166566834
1761140470387408100,4.135408203125,0.038083354678750035,0.00015869769304990768,0.008757918872637674
1761140470397467000,4.145466796875,0.03628653438985348,0.004924542121682316,0.001773384614381939
1761140470407526100,4.155526123046875,0.04660977548360824,0.012637144059315323,-0.01620632604928687
1761140470417585000,4.1655849609375,0.0424199225783348,-0.0009221380799077451,-0.0139194846205879
1761140470427645000,4.17564501953125,0.04511339944601059,-0.00010846534315496683,0.005742014250718057
1761140470437704000,4.185703857421875,0.04257014470398426,0.003552851909678429,-0.014329490193584933
1761140470447763000,4.195762939453125,0.041076106753945345,-0.0009114888217300176,-0.01328702280279249
1761140470457822000,4.205822021484375,0.036139234873652455,-0.002593468825612217,-0.00723043531072326
1761140470467882000,4.215882080078125,0.04107727579772472,0.006311667364835739,-0.00432006428935565
1761140470477941000,4.22594091796875,0.048559740507602686,-0.0013846775577403604,-0.01989651320357807
1761140470488000000,4.236,0.05095511121153831,0.005439962564222515,-0.001476593624893576
1761140470498060000,4.24606005859375,0.03808978441953659,0.009272307268716395,-0.006186406150506809
1761140470508118800,4.256118896484375,0.03958557593524456,0.00001366319917142391,-0.0033748467279598113
1761140470518178000,4.266177978515625,0.05021276841163635,-0.010691562949493527,0.0012359715357422828
1761140470528236800,4.27623681640625,0.047668929147720335,-0.004304400929342955,-0.0015093999159522353
1761140470538296800,4.286296875,0.05709609818458557,-0.00036549057783558965,-0.002972120279120281
1761140470548355800,4.29635595703125,0.03584814297258854,0.0034051322683691975,-0.00856552897254005
1761140470558414800,4.306414794921875,0.05200958870053291,0.01224894845932722,-0.003392565047740936
1761140470568473900,4.316473876953125,0.04707037873268127,0.006644333385303616,0.006338546238606795
1761140470578534000,4.326533935546875,0.035249592557549475,0.0033498766834847626,0.0014513678520917891
1761140470588593000,4.336593017578125,0.03839373580217361,0.004769826484005898,0.0035696112482342867
1761140470598652000,4.34665185546875,0.028968904852867124,-0.0007174823532812297,-0.0030847686070483177
1761140470608711000,4.3567109375,0.04602992976903915,-0.00602969035198912,-0.01468476990466006
1761140470618771000,4.36677099609375,0.05291325954198837,0.007561612627003341,-0.0009079451577737927
1761140470628830000,4.376829833984375,0.046181320938467975,0.008739131973776966,-0.0015755878868047148
1761140470638889000,4.386888916015625,0.040646483165025706,-0.0015725465463474393,-0.007263250734936446
1761140470648948000,4.396947998046875,0.037354455882310865,0.007525901992805301,0.0019567235583439467
1761140470659008000,4.407008056640625,0.040647652208805084,0.01539080841531977,0.02068846729886718
1761140470669067000,4.41706689453125,0.03226794639825821,0.005228621368482709,-0.003842071514064446
1761140470679126000,4.4271259765625,0.03361526935398578,0.013489851898513733,0.0017848375901579857
1761140470689185800,4.437185791015625,0.02687807005345821,0.01237403614372015,-0.00660037551256828
1761140470699245000,4.4472451171875,0.052912090498209,0.004216028526145965,-0.0012184906779788434
1761140470709303800,4.4573037109375,0.044832828938961025,-0.0018086203245446086,-0.0017612375188618898
1761140470719363000,4.467363037109375,0.03316051132380962,0.0019169943361543118,-0.005808741077687591
1761140470729422800,4.4774228515625,0.03750000183284283,0.015827007875498383,0.0024175368699710814
1761140470739481900,4.48748193359375,0.03480594044327736,-0.004397778301220387,-0.011415612040879205
1761140470749540900,4.497540771484375,0.039892449927330015,0.014542886349093169,-0.010364988743094727
1761140470759599900,4.507599853515625,0.046775779700279234,0.0038136400040239093,-0.010005544313555582
1761140470769660000,4.517659912109375,0.037648470392823215,0.008116670960187911,-0.007475989303318783
1761140470779719000,4.527718994140625,0.0204389769166708,0.007896762865502387,-0.013274556046864018
1761140470789778000,4.53777783203125,0.04812251813411712,-0.0034895774151198562,0.0009765077488031237
1761140470799837000,4.5478369140625,0.05276303741633892,-0.007540295844338834,-0.003387879739468917
1761140470809897000,4.55789697265625,0.04303717769384384,0.003335099239461124,-0.0076068308750633145
1761140470819955700,4.567955810546875,0.036304070046544075,0.004658949988055974,0.006309676337148994
1761140470830015000,4.578014892578125,0.04228606706559658,-0.006917140711005776,-0.018226223637489603
1761140470840073700,4.58807373046875,0.04288403295874595,0.000940769715141505,-0.0056215114098973566
1761140470850134800,4.598134765625,0.03510112399756908,-0.005307568356208503,0.009153484928328544
1761140470860193800,4.60819384765625,0.03539864563941955,-0.0045603849844075735,-0.013383468914590775
1761140470870252800,4.618252685546875,0.05036240601539611,0.00613952566832304,-0.0005920658753253519
1761140470880312600,4.6283125,0.04452770851254463,0.009692779436800629,0.0019947083480190485
1761140470890371800,4.638371826171875,0.033307226318120955,0.006119195266347378,-0.01267155778557062
1761140470900430600,4.6484306640625,0.054554012486338614,0.011560527803748845,-0.014963331117713823
1761140470910489900,4.65848974609375,0.03030921354591846,0.02522447589384392,-0.005116721959225833
1761140470920550000,4.6685498046875,0.0539531239837408,0.009552896042075008,0.010091962221683935
1761140470930608600,4.678608642578125,0.04317980103492736,-0.0015930596114136278,-0.008660285450750961
1761140470940668000,4.68866796875,0.05545125358700752,0.00916952274767682,0.0052924347191583366
1761140470950726700,4.6987265625,0.045429041266441345,0.00588211684115231,-0.004512746450398117
1761140470960787000,4.708786865234375,0.04917056588232517,-0.004723028200212866,-0.011450299761770293
1761140470970845700,4.718845703125,0.04498129749894142,0.004757843785267323,0.010934632724057883
1761140470980904700,4.72890478515625,0.030465865412354468,0.010188453999254853,-0.013587667983490972
1761140470990963700,4.738963623046875,0.02792202614843845,0.01036538146873936,-0.005478678006259724
1761140471001023700,4.749023681640625,0.031660628154873846,-0.00029423370622098444,-0.011669166676839813
1761140471011082800,4.759082763671875,0.051112347599864,0.011423146893363446,-0.020531294842623175
1761140471021141800,4.769141845703125,0.036897359764575956,0.016188717327360064,-0.011105121319601311
1761140471031200800,4.77920068359375,0.030315643286705014,-0.005054579975828528,-0.013645782245742156
1761140471041260800,4.7892607421875,0.04976911629736423,0.014293532964214681,0.0063366100098472085
1761140471051319800,4.79931982421875,0.038547465059161186,0.0011437814739532768,-0.01003793047950603
1761140471061378800,4.80937890625,0.039298575687408445,-0.007325812843441963,-0.007233111324999481
1761140471071437800,4.819437744140625,0.037054596152901645,0.0036608057961799202,0.0016935608438216148
1761140471081497600,4.82949755859375,0.04468494490087032,0.002580006555840373,0.0017391718175262213
1761140471091556900,4.839556884765625,0.05246551577448844,0.02006977827809751,-0.0037235049020033326
1761140471101615600,4.84961572265625,0.03241290782690048,0.008727678998000919,0.0031006602959241718
1761140471111675600,4.859675537109375,0.04423194043636322,0.003849843828566372,-0.012363788744341582
1761140471121735000,4.86973486328125,0.0491693968385458,-0.012235723651573062,-0.027563312371261417
1761140471131793700,4.879793701171875,0.05470598817765712,-0.0010878135030157863,-0.0005421897184569388
1761140471141853000,4.88985302734375,0.04003974944353103,-0.00243484419779852,0.013275971685815601
1761140471151912700,4.89991259765625,0.0376449632614851,0.0037676271715201435,-0.009612672538449987
1761140471161971700,4.9099716796875,0.042733226311206816,-0.0049593029078096144,-0.020526609534351155
1761140471172030700,4.92003076171875,0.03525193064510822,0.011112893634103237,-0.0023479056998621673
1761140471182089700,4.93008984375,0.05545359167456627,0.0009045293579809367,-0.009670275344047696
1761140471192149800,4.940149658203125,0.030613164928555488,-0.002131605201214552,0.004466925414139404
1761140471202208800,4.950208740234375,0.04826689504086971,-0.003412621455080807,-0.004790887538343668
1761140471212267800,4.960267822265625,0.04302840986549854,0.00011230126805603503,-0.014524738771049305
1761140471222326800,4.970326904296875,0.04841244099140167,0.019424648774974046,0.01667629991490394
1761140471232386800,4.98038671875,0.04482055397927761,0.01472611569520086,-0.0046886692728847264
1761140471242445800,4.99044580078125,0.030603228056430815,0.0010823518766090274,-0.012325520826876163
1761140471252504800,5.0005048828125,0.04601590124368667,0.0038050731050781905,0.005305732592148706
1761140471262563600,5.0105634765625,0.043920974791049956,0.0048161498437635595,-0.012983646808890624
1761140471272623900,5.020623779296875,0.03464461240172386,0.002016125595383346,-0.0030911344157531855
1761140471282682600,5.0306826171875,0.04033201038837433,-0.003828855839464813,-0.004104439644142985
1761140471292742000,5.040741943359375,0.04317629390358925,0.0016444792713969944,-0.009644647712446748
1761140471302800600,5.050800537109375,0.04182955546975135,0.0022157580870203674,-0.0023579247703775764
1761140471312860700,5.060860595703125,0.02985620908141136,0.0029663389923051,0.019083424988714976
1761140471322920000,5.070919921875,0.04347498458921909,0.009631477703619747,0.0025312629101332277
1761140471332978700,5.080978759765625,0.04781739770770073,0.010623082556854933,-0.008736803019372746
1761140471343038700,5.091038818359375,0.04646832118630409,-0.0002291325807571411,-0.014087708193808793
1761140471353097700,5.10109765625,0.04886252284646034,0.011098006592225283,-0.012173399005085229
1761140471363156700,5.11115673828125,0.054702481046319,-0.0022093283462338146,-0.008739542965730651
1761140471373215700,5.1212158203125,0.050064299851655954,0.0004559636065736413,-0.01592107936711982
1761140471383275800,5.13127587890625,0.036899113330245016,0.001384823688212782,-0.009411058152280747
1761140471393334800,5.141334716796875,0.031660628154873846,-0.007557100848667323,-0.0010632087847217916
1761140471403393800,5.151393798828125,0.050066053417325014,0.008204239645786583,-0.006253269974794238
1761140471413452800,5.161452880859375,0.04168634760677814,-0.001771210923604667,0.005354649767791852
1761140471423512600,5.1715126953125,0.04093991315364837,0.0077911835991777475,-0.0018771920487284659
1761140471433571800,5.18157177734375,0.03255728473365307,-0.0016537220237776637,0.01887764588408172
1761140471443630600,5.191630615234375,0.053956046593189234,0.00694187329346314,0.0032269352904055267
1761140471453689900,5.20168994140625,0.03899228621721267,0.0013308284786529838,0.005818869746057317
1761140471463749600,5.21174951171875,0.05186053561866283,-0.003629844402335584,-0.014120934609975665
1761140471473808600,5.22180859375,0.052610477203130716,0.003668020988255739,-0.014658338555460795
1761140471483867600,5.23186767578125,0.03450432714819908,0.00669040101673454,0.008125383989606052
1761140471493926700,5.2419267578125,0.03674772216081619,-0.007106160477083176,-0.011466821638308465
1761140471503987000,5.251987060546875,0.04527589653134346,0.013855141546949744,-0.0014896357695572077
1761140471514045700,5.262045654296875,0.03704524380266666,0.011957345101609826,-0.00709002219303511
1761140471524105000,5.27210498046875,0.04138648787736893,0.008038874749932437,-0.00531804408445023
1761140471534163700,5.282163818359375,0.04946750300228595,0.006745802732091397,-0.020496862850058823
1761140471544223700,5.2922236328125,0.046323944279551506,-0.004661982195358723,-0.020608396933134644
1761140471554282800,5.30228271484375,0.047369069418311115,0.00744542063511908,-0.010903178139869123
1761140471564341800,5.312341796875,0.039438860940933226,-0.006911624285671859,0.0024737605692353097
1761140471574400800,5.32240087890625,0.04033902465105056,0.01220046967510134,-0.008211263041617348
1761140471584460800,5.332460693359375,0.03405366077125072,0.00662316273311153,-0.00486192521424964
1761140471594519800,5.342519775390625,0.03644610886573791,0.008876366753689944,0.011603882888285443
1761140471604578800,5.352578857421875,0.024774375772476195,0.0096949531275779,-0.002961397955706343
1761140471614638800,5.362638916015625,0.04662321948707104,0.009145173757709563,-0.006075986312283203
1761140471624697600,5.372697509765625,0.058739773738384245,0.0031447825654409823,-0.008619469383172691
1761140471634756900,5.3827568359375,0.04317746294736862,0.0063119230931624765,0.009195141246123239
1761140471644815600,5.392815673828125,0.04676759639382362,0.017763985553756356,0.008481759679224342
1761140471654875600,5.402875732421875,0.03344751157164574,-0.0010379647456109523,-0.004351171813672408
1761140471664935000,5.412934814453125,0.04032967230081558,0.00794060200722888,-0.00713389786737971
1761140471674993700,5.42299365234375,0.04182371025085449,0.015241773599758743,-0.005978809548122808
1761140471685053000,5.433052978515625,0.050503860312700266,0.004305369043722748,-0.007539062868477776
1761140471695112700,5.44311279296875,0.04092646915018558,0.01275046824067831,-0.0036199531959835436
1761140471705171700,5.453171630859375,0.04152735765278339,-0.0017423318889923393,-0.012467632711306213
1761140471715230700,5.463230712890625,0.03090367230772972,-0.001547466904018074,-0.012393106170371175
1761140471725289700,5.473289794921875,0.049608957299590105,-0.005876417752727866,-0.013680844425968825
1761140471735349800,5.483349853515625,0.05170388375222683,0.0005947692890651523,-0.002833049735147506
1761140471745408800,5.49340869140625,0.04691723399758339,0.01022482222057879,0.014948626738926395
1761140471755467800,5.5034677734375,0.031356092250347134,-0.000934248642809689,0.0031111360241658985
1761140471765526800,5.51352685546875,0.05215338108539581,0.003661554714851081,-0.010822203591838478
1761140471775586800,5.5235869140625,0.04332476246356964,0.0002512896136380732,0.0066973878799472
1761140471785645800,5.533645751953125,0.04901040688455104,-0.004098630957864224,0.004842663391353562
1761140471795704800,5.543704833984375,0.04123158957660198,0.006168130708299577,0.003756585187697783
1761140471805763800,5.553763916015625,0.05559738405942916,0.008543554602749645,-0.0012798563432414084
1761140471815824000,5.563823974609375,0.05170446827411651,0.0034205490332096813,0.0016690657233819366
1761140471825882600,5.573882568359375,0.04287584965229034,0.01058755458574742,-0.0032887850128579883
1761140471835942000,5.58394189453125,0.04212766163349151,0.0016782171442173421,-0.012985153779387474
1761140471846000000,5.594000244140625,0.05948913080096244,0.007898626029025763,0.0024652850018348545
1761140471856060000,5.604059814453125,0.051554830670356745,-0.000338091114256531,-0.00780565051594749
1761140471866119200,5.614119140625,0.053795887595415114,-0.0018430157844908535,0.0021130740306805817
1761140471876178000,5.624177978515625,0.04406944335103035,0.015129636728484183,-0.005894391800835728
1761140471886238200,5.63423828125,0.036136312264204024,0.011473908966220915,-0.009445563210081309
1761140471896297200,5.644297119140625,0.03972527666687965,0.0006200863934122026,-0.013098313563968985
1761140471906356200,5.654356201171875,0.03927928646504879,0.003816325151454657,-0.011999914734857156
1761140471916415200,5.664415283203125,0.03269464737772941,-0.00018036153558641672,-0.01828539734566584
1761140471926475000,5.67447509765625,0.04182137216329574,0.0064589120821096,-0.0033248883727006614
1761140471936534300,5.6845341796875,0.048107320564985276,0.0068767904343083495,-0.012739380591083318
1761140471946593000,5.694593017578125,0.03434066101908684,-0.007014810665510594,0.0006340144540648907
1761140471956652300,5.70465234375,0.044966099929809565,0.02101674027200788,-0.00779856318803504
1761140471966712300,5.71471240234375,0.04317103320658207,0.004104092584270983,-0.004432301625330001
1761140471976771000,5.72477099609375,0.034790742874145505,-0.006900006913114339,-0.005907150817709044
1761140471986830300,5.734830322265625,0.050800212910771365,0.009824589122924953,-0.00935963849229738
1761140471996889000,5.74488916015625,0.0430213956028223,0.0065653498649597165,-0.006639337549777701
1761140472006949000,5.75494921875,0.03688391576111316,0.00954191799033433,-0.021319266882538795
1761140472017008000,5.765008056640625,0.045861587464809415,0.007257460314966738,-0.009424465623125433
1761140472027067100,5.775067138671875,0.03628361178040504,0.001312068979255855,-0.0003291497559752315
1761140472037126100,5.785126220703125,0.04511339944601059,-0.006240885417256504,-0.00012935286755673587
1761140472047186200,5.795186279296875,0.04436228881776333,0.021917470237705856,-0.002957132772542536
1761140472057245000,5.805244873046875,0.039570962888002395,0.017839242747053504,-0.0018759316734038292
1761140472067304200,5.81530419921875,0.033736849907040595,0.011805205013509838,0.0020917937806341795
1761140472077363000,5.825363037109375,0.06231997031271457,0.0004961312201805412,-0.009338814899977297
1761140472087423000,5.835423095703125,0.03628419630229473,-0.0019267668114975093,-0.009303451325651258
1761140472097482200,5.845482177734375,0.040622517767548556,-0.0035791553947143256,-0.017461376744834705
1761140472107541000,5.855541015625,0.0496048656463623,0.0036461379500105973,0.0015603811845183372
1761140472117600300,5.865600341796875,0.046313422885537144,0.008187233712058513,0.00031792510906234383
1761140472127660000,5.875659912109375,0.05035480723083019,0.0034721878889016804,0.00450006963191554
1761140472137719000,5.885718994140625,0.041078444841504094,0.0075703804553486406,0.0032499143071938303
1761140472147778000,5.895778076171875,0.022822072660923003,0.010127974249981343,0.0017458390203304588
1761140472157837000,5.905837158203125,0.039134325036406514,0.005720222544018179,0.00015907215238548814
1761140472167897300,5.9158974609375,0.05918401037454605,0.013066055262181906,-0.009052983695920556
1761140472177956000,5.9259560546875,0.04077566250264644,-0.000834112736582756,0.00500621992261149
1761140472188015000,5.93601513671875,0.04631166931986808,0.006272887990716844,0.009515121314954012
1761140472198075100,5.9460751953125,0.04152326599955559,-0.005731145796831697,-0.0027740404237527397
1761140472208134100,5.956134033203125,0.04182254120707512,0.0003097052699886262,0.0007336937025655061
1761140472218193200,5.966193115234375,0.030447745233774182,-0.003695694446470588,0.00014239501222036778
1761140472228252200,5.976252197265625,0.030748189485073088,-0.00951482905400917,-0.010572658410714938
1761140472238312200,5.986312255859375,0.0463110847979784,0.00495440753698349,-0.005659879792062565
1761140472248371200,5.99637109375,0.05618775116801262,0.011549129626899957,0.016934019269328564
1761140472258430200,6.00643017578125,0.03194645935893058,0.0122673791651614,-0.007340014898730441
1761140472268489200,6.0164892578125,0.040024551874399183,0.013905246032681316,-0.013344972668262197
1761140472278549200,6.02654931640625,0.037630350214242936,0.010674118624348193,0.0031719628333114086
1761140472288608000,6.03660791015625,0.030601474490761754,0.0002893748680129647,-0.005297238758439198
1761140472298667300,6.046667236328125,0.026263737547397612,0.01581747286217287,-0.000013590133935213088
1761140472308726000,6.05672607421875,0.05184709161520004,0.004121189849544316,-0.00919308628635481
1761140472318786000,6.0667861328125,0.05244447298645973,0.011948358077555895,-0.015223169363988563
1761140472328845000,6.076844970703125,0.03014847002625465,0.002023139858059585,-0.017523199067823587
1761140472338904000,6.086904052734375,0.02790390596985817,-0.0023022307940758764,-0.00854231249373406
1761140472348963000,6.096963134765625,0.03987491427063942,-0.0016592019164934754,-0.010305824168073012
1761140472359023000,6.107023193359375,0.05259586415588855,-0.005773651497997343,-0.009847148014605045
1761140472369082000,6.11708203125,0.04675882856547832,0.0034353264772333204,-0.013532394132297485
1761140472379141000,6.12714111328125,0.0424199225783348,-0.0055711694621481,0.0003490782991517335
1761140472389200100,6.1372001953125,0.03733282857239246,0.015327442589215933,-0.0056407093007117505
1761140472399260200,6.14726025390625,0.0499012182444334,-0.0011593809018842875,0.006236830296646803
1761140472409319200,6.157319091796875,0.04077040180563926,0.0002322926522232592,0.003576040989020839
1761140472419378000,6.1673779296875,0.04660626835227012,0.003687949531432241,-0.0038862942482810465
1761140472429437200,6.177437255859375,0.03867430630922317,0.0006551029078662395,-0.018832838627975433
1761140472439497200,6.187497314453125,0.04750350945293903,-0.0006883293240331113,0.004693838638346642
1761140472449556200,6.19755615234375,0.04106909249126911,0.004269877605233341,-0.007231659153429791
1761140472459615200,6.207615234375,0.04346212510764599,0.008013996037002652,-0.005953200182830914
1761140472469674000,6.217674072265625,0.03987082261741161,0.026887605066783726,-0.006789669273281469
1761140472479734300,6.227734375,0.04331424106955528,0.009656502547021955,-0.005832405081065371
1761140472489793000,6.23779296875,0.046454877182841296,-0.0009438201887533068,-0.015240787219069898
1761140472499852300,6.247852294921875,0.046452539095282554,-0.003165679222997278,-0.018324405048647893
1761140472509911000,6.2579111328125,0.027598201021552086,0.004351601071935147,-0.0019730445054825393
1761140472519971000,6.26797119140625,0.0507943676918745,0.008764120284561068,-0.012962594887707382
1761140472530030300,6.2780302734375,0.04630523957908153,0.0010777305004186929,0.019890028663864356
1761140472540089000,6.288089111328125,0.04241349283754825,-0.0038302806115709243,-0.006952787413122132
1761140472550148400,6.2981484375,0.05378595072329044,-0.001001669589523226,-0.00501483248732984
1761140472560208100,6.3082080078125,0.04435878168642521,0.0024734043762087822,0.0017606347306631505
1761140472570267100,6.31826708984375,0.03582593114078045,0.005738196592126041,-0.002721488252608105
1761140472580326100,6.328326171875,0.048994624793529507,0.011265289450529962,-0.0040300592336803675
1761140472590385200,6.33838525390625,0.04390986887514591,-0.016433851194847374,-0.007444653450138866
1761140472600445000,6.34844482421875,0.048098552736639974,0.015078801590390503,-0.02092441321290098
1761140472610504200,6.358504150390625,0.04689852929711342,0.0009591273557394743,-0.00515930072562769
1761140472620563000,6.36856298828125,0.04255670070052146,0.006547138354834169,-0.014992411081725731
1761140472630622200,6.378622314453125,0.046746553605794904,0.008509853262547403,0.002357011454924941
1761140472640682200,6.38868212890625,0.04255494713485241,0.00011684957901015877,-0.00808557256902568
1761140472650741000,6.398740966796875,0.045697921335697174,0.007889054483082145,0.007365925658121704
1761140472660800300,6.40880029296875,0.049288054782152174,0.002536423142440617,-0.009900823563756421
1761140472670860000,6.418860107421875,0.032976971450448034,0.006130849171523004,-0.011454519279161468
1761140472680919300,6.428919189453125,0.052280806857347484,-0.004865761139150709,0.010637476408388465
1761140472690978000,6.43897802734375,0.03926058176457882,0.006295465148705989,0.0005822751336731016
1761140472701037000,6.449037109375,0.049287470260262485,0.015709811236616224,-0.01580913429209031
1761140472711097300,6.459097412109375,0.054226680228114124,0.005094838920980692,-0.008673382394341752
1761140472721156000,6.469156005859375,0.03223053699731827,-0.0046270570124499494,0.00024889672715216874
1761140472731215400,6.47921533203125,0.029537060129642485,0.0038532230957411227,-0.014032927532959729
1761140472741274000,6.489274169921875,0.03402501919865608,0.002243595942016691,-0.01618806887338869
1761140472751334100,6.499334228515625,0.04225274931788444,-0.00825801565963775,-0.008574534262903034
1761140472761393200,6.50939306640625,0.04449789789617061,-0.006141315766610205,-0.005416992680588737
1761140472771452200,6.5194521484375,0.03581891687810421,0.002778890128806233,0.0021496614477131515
1761140472781511200,6.52951123046875,0.049586745467782016,-0.00039694516202434896,0.00758871069648303
1761140472791571200,6.5395712890625,0.05766892963647842,0.008532101626973598,-0.016142357434984295
1761140472801630000,6.5496298828125,0.038514147311449046,0.013328980514686554,-0.012455366884777322
1761140472811689200,6.559689208984375,0.04165653699040413,-0.004221581484097987,-0.016970908080460503
1761140472821748000,6.569748046875,0.03342588426172733,0.012807568722777067,-0.01550041540279053
1761140472831808000,6.57980810546875,0.0682926149815321,0.0021676263626664877,-0.014683454730408265
1761140472841867300,6.5898671875,0.034627076745033264,0.0013038308738730848,-0.002470920158177614
1761140472851925500,6.599925537109375,0.03747194478213787,0.007782488836068659,-0.015383858084725215
1761140472861984800,6.60998486328125,0.054527709001302715,0.0037996845439076422,-0.014011519418749957
1761140472872044500,6.62004443359375,0.0483937362909317,0.0037617819526232776,-0.017261196263926103
1761140472882103800,6.630103759765625,0.0482411760777235,0.0059663427921943365,-0.011540526195336133
1761140472892162600,6.64016259765625,0.042401217877864834,0.010074563562311232,-0.010960945342248306
1761140472902221600,6.6502216796875,0.043747956311702724,0.003931640360504389,-0.018023504139622674
1761140472912281900,6.66028173828125,0.03267477363348007,-0.006746752580162137,0.010647669008839875
1761140472922340600,6.670340576171875,0.04060498211085796,0.0025454466991126534,0.009108924267394467
1761140472932399900,6.68039990234375,0.03761398360133171,0.008861936369538307,-0.008396026757685467
1761140472942458600,6.690458740234375,0.033277415701746936,0.00018306494932621717,-0.008538969759177416
1761140472952518700,6.7005185546875,0.034625907701253886,-0.0034243849581107495,-0.01609013405740261
1761140472962577700,6.71057763671875,0.041808512681722636,0.01264987567672506,-0.007362272396311163
1761140472972636700,6.72063671875,0.03283142549991608,-0.013951916452310979,0.013252399013983085
1761140472982695700,6.73069580078125,0.03672434128522873,0.005771897932328284,0.008299936838913708
1761140472992755700,6.740755615234375,0.04659925408959389,0.009523852610681205,-0.019018661789968607
1761140473002814700,6.750814697265625,0.03642331251204014,0.005892163311131298,-0.008195663613686337
1761140473012873700,6.760873779296875,0.029088731840252874,-0.00001375453071668744,-0.022622531500831246
1761140473022932700,6.7709326171875,0.05602057790756225,0.004387713564932346,-0.01620066349348053
1761140473032992500,6.780992431640625,0.039110359638929365,0.008325071280170232,0.0009805446031037716
1761140473043051800,6.7910517578125,0.039707741010189056,0.0003746054660528898,-0.01318029275899753
1761140473053110500,6.801110595703125,0.04449672885239124,0.006905084947030991,-0.00045612800335511564
1761140473063169800,6.811169677734375,0.044646950978040695,-0.0024943375663831827,0.005604953000741079
1761140473073229800,6.821229736328125,0.034310265880823136,0.0017996333004906772,-0.015539980228198691
1761140473083288600,6.83128857421875,0.054959086155891415,-0.0018375724243931471,-0.013547774364519864
1761140473093347800,6.841347900390625,0.03146481332182884,0.010020221292879432,-0.025875432349555194
1761140473103406600,6.851406494140625,0.04238660483062267,-0.005213496864587068,-0.01534362653903663
1761140473113466600,6.861466552734375,0.04777005143463611,-0.001560143722500652,-0.006321184111852198
1761140473123525600,6.871525634765625,0.04686345798373222,-0.0034937238672748208,0.0005161693612113595
1761140473133584600,6.881584716796875,0.04236497752070427,0.003987060342170298,-0.013612309234403073
1761140473143643600,6.8916435546875,0.043107904842495916,0.013642813970521092,-0.0019604955511633307
1761140473153703700,6.90170361328125,0.03247954332232475,0.012209091372974216,-0.024165760621149092
1761140473163762700,6.9117626953125,0.03367489058673381,-0.004964691468980163,-0.011680226926971226
1761140473173821700,6.92182177734375,0.056121700194478034,0.005114329072739929,-0.007684654484782368
1761140473183880400,6.93188037109375,0.035171266624331475,-0.014709676017053424,-0.005777953213779255
1761140473193940700,6.941940673828125,0.04414718476235866,-0.0009028488575480878,-0.006506249222019687
1761140473203999700,6.951999755859375,0.04728606730997562,0.012963270741142332,-0.013640658546052873
1761140473214058800,6.962058837890625,0.04713584518432617,0.0145262274752371,-0.014199032214330509
1761140473224117800,6.97211767578125,0.03815817348062992,-0.0018258089213632046,-0.016746177680185062
1761140473234177500,6.982177490234375,0.04310205962359905,0.007966266171447932,-0.008810324913309887
1761140473244236800,6.99223681640625,0.0399625925540924,-0.010732278552372007,-0.011155198405869305
1761140473254295600,7.002295654296875,0.04939093063473701,-0.0011858122510835527,-0.011271993185952305
1761140473264354800,7.012354736328125,0.028441666108369824,-0.0010130495000630617,0.010923234547208994
1761140473274414800,7.022414794921875,0.03278407922685146,-0.0036594906219281254,-0.02610362421539612
1761140473284473600,7.0324736328125,0.03458148403763771,-0.006826174491923302,-0.012052613036474213
1761140473294532900,7.042532958984375,0.04206394874751568,0.010540445774700492,-0.0028221721481066194
1761140473304591600,7.052591552734375,0.04281272128820419,-0.0003877937411889434,0.0005168908804189413
1761140473314651600,7.062651611328125,0.049850364840030664,0.0013818645461462437,-0.009944215180911124
1761140473324710700,7.072710693359375,0.036088381469249725,0.00888436739705503,-0.002701057385932654
1761140473334769700,7.082769775390625,0.050610827818512914,-0.003630100130662322,0.004199999839952216
1761140473344828700,7.09282861328125,0.0492740262567997,0.01366508060125634,-0.0005053465730976314
1761140473354888700,7.102888671875,0.03521569028794765,-0.00475451931701973,-0.018639964670687913
1761140473364947500,7.112947509765625,0.03836684779524803,0.0048369551697745915,0.00999914197223261
1761140473375006700,7.1230068359375,0.0344815307945013,-0.010438994694221763,-0.010142669495614244
1761140473385065500,7.1330654296875,0.03927753289937973,-0.003653535805176943,-0.007013614222267642
1761140473395125500,7.14312548828125,0.048557986941933626,0.007334069215133786,-0.0026726989411283283
1761140473405184800,7.153184814453125,0.041973347854614255,0.007250446052290499,-0.019867104446003214
1761140473415243500,7.163243408203125,0.055440147671103474,0.0009825995628722011,-0.012402769047860055
1761140473425302800,7.173302734375,0.04107435318827629,0.0002817030182108283,-0.0112214959745761
1761140473435362600,7.183362548828125,0.04212473902404308,-0.008065872354712338,-0.010996299783419816
1761140473445421600,7.193421630859375,0.060382280248403544,-0.0031351379542611537,-0.007334489340241998
1761140473455480600,7.20348046875,0.04182721738219261,0.014043138399720191,-0.017079227293143047
1761140473465539600,7.21353955078125,0.027313538861274717,-0.010232347939908504,0.00045945247160270806
1761140473475600000,7.223599853515625,0.05035480723083019,0.006970295670349151,0.011349917260371148
1761140473485658600,7.23365869140625,0.0608288549721241,0.015513558012153952,0.0026135982981882987
1761140473495718000,7.2437177734375,0.04631400740742683,0.002128536461293697,-0.005242859956389293
1761140473505776600,7.253776611328125,0.04347323102355003,0.0022623006424866616,0.0034429709275718774
1761140473515836700,7.263836669921875,0.03090367230772972,-0.0021959939406253396,0.0036666327487677335
1761140473525895700,7.273895751953125,0.03150222272276878,-0.0024044125269167124,0.00824118325584568
1761140473535954700,7.28395458984375,0.04122925148904323,-0.006396203843131661,0.0028022984038572757
1761140473546013700,7.294013671875,0.043622868627309797,0.0058827926945872605,0.006521675120014697
1761140473556073700,7.30407373046875,0.05230360321104526,0.006643931526504457,0.008284529207227751
1761140473566132700,7.3141328125,0.0470645335137844,-0.0008871398317627608,0.0048302971001248805
1761140473576191700,7.324191650390625,0.03509469425678253,0.007577065924461931,-0.013972694378858432
1761140473586250800,7.334250732421875,0.04886135380268097,0.006942603945825248,-0.0044481841810513284
1761140473596310500,7.344310546875,0.036440848168730736,0.006765475546941161,-0.0051311980091501026
1761140473606369800,7.354369873046875,0.05664484728574753,0.0030626024410128593,0.0037974743205122646
1761140473616428500,7.364428466796875,0.037943069425225254,0.0038604930867440997,-0.0031511757736094295
1761140473626487800,7.37448779296875,0.04467968420386314,0.007256199939642101,-0.011086087825568393
1761140473636547600,7.384547607421875,0.037648470392823215,0.004196848901640624,-0.007763473608344793
1761140473646606600,7.394606689453125,0.036001872229576105,-0.006139343005232513,0.0011614267284981905
1761140473656665600,7.40466552734375,0.03166179719865322,-0.00019524857746437192,0.0026987649641465393
1761140473666724600,7.414724609375,0.05380699351131916,0.01591258553341031,-0.0019274609312415123
1761140473676784600,7.42478466796875,0.03555295941829681,-0.000016147417202591894,0.004558393956720828
1761140473686843600,7.43484375,0.03345861748754978,0.003409516182541847,-0.009950562723306938
1761140473696902700,7.444902587890625,0.033009120154380796,0.013796762423217295,-0.015157227988308295
1761140473706961700,7.454961669921875,0.0406423915117979,0.004236979982629418,-0.0032137378821149466
1761140473717021700,7.465021728515625,0.053661447560787195,-0.0018606793053448198,-0.007292321565793827
1761140473727080700,7.475080810546875,0.05515723907649517,0.008072210763953626,-0.006237999340426176
1761140473737139700,7.4851396484375,0.04483224441707134,0.004660703553725034,-0.022364994809497146
1761140473747198500,7.495198486328125,0.037650223958492275,-0.0015157748578116298,-0.006946951327379792
1761140473757258800,7.5052587890625,0.04498129749894142,0.000714979868941009,-0.009884365619299933
1761140473767317800,7.51531787109375,0.04707739299535751,-0.006160422325879335,-0.005324026300664991
1761140473777376800,7.525376708984375,0.046480596145987506,-0.007581230642925947,0.006409373851958662
1761140473787435800,7.535435791015625,0.04528524888157844,0.001764013997837901,-0.006864141015289351
1761140473797495600,7.54549560546875,0.05022153623998165,0.019463464681711045,-0.006936311202356591
1761140473807554800,7.555554931640625,0.04378711927831173,0.005127992271911352,-0.012471459503052755
1761140473817613600,7.565613525390625,0.0466290647059679,-0.013260445323120802,-0.0037944329800549893
1761140473827672800,7.5756728515625,0.049022097322344776,-0.0016516031319275498,-0.007204606749722734
1761140473837732900,7.58573291015625,0.0466290647059679,0.009767068515717982,0.01442641122941859
1761140473847791600,7.59579150390625,0.04976970081925392,-0.008421590457204729,-0.007904252052213996
1761140473857851000,7.605850830078125,0.05156652110815048,-0.012094634680449962,-0.02605869822828099
1761140473867909600,7.61590966796875,0.03390928386449814,0.004177833673916757,-0.0034910843856167046
1761140473877969700,7.6259697265625,0.04692833991348743,0.006512249704543501,-0.01775095254224725
1761140473888029000,7.63602880859375,0.050670449051260946,0.009296619726065545,0.003521990980533883
1761140473898087700,7.646087646484375,0.04363806619644165,-0.0011144823142327368,-0.004445599498320371
1761140473908147000,7.65614697265625,0.04603168333470821,-0.001989365452621132,-0.01812039777599275
1761140473918206700,7.666206787109375,0.047376668202877045,-0.008399214228615164,-0.004846681979345157
1761140473928265700,7.676265625,0.050667526441812515,-0.005026340262033045,-0.0033342863887082783
1761140473938324700,7.68632470703125,0.03690378950536251,0.0017165946595370768,0.0037412232217844572
1761140473948383700,7.6963837890625,0.037950668209791184,-0.0038510676712729033,0.010834999141329899
1761140473958443500,7.706443603515625,0.056204702302813526,-0.009832589766290038,0.0018954035588540136
1761140473968502800,7.716502685546875,0.05650456203222275,0.005255765103735029,-0.021007643650099633
1761140473978561500,7.7265615234375,0.03735153327286243,-0.0020611155145801602,-0.003737770889373496
1761140473988620800,7.736620849609375,0.046481765189766884,-0.010339242380484937,-0.004054161628475413
1761140473998680800,7.746680908203125,0.0389998850017786,0.0032245880696922537,-0.005167383567383513
1761140474008739600,7.756739501953125,0.0514174680262804,-0.011305694526154547,-0.012804326452920213
1761140474018798800,7.766798828125,0.04797580313980579,0.007054156295210123,0.005991468100296333
1761140474028857600,7.776857666015625,0.03361117770075798,-0.014231993769016116,-0.018695823043771088
1761140474038918000,7.78691796875,0.042289574196934694,0.011289583641570062,0.009768840347696095
1761140474048976600,7.7969765625,0.04558160147964954,0.012353212551400065,-0.0006674874654039741
1761140474059036000,7.807035888671875,0.027623335462808606,0.010684457355272025,0.012665054979547858
1761140474069094700,7.8170947265625,0.04034136273860931,0.004493091901857406,0.002513316261488944
1761140474079154700,7.82715478515625,0.04826923312842846,0.0016202033466659485,-0.01835827078563161
1761140474089214000,7.8372138671875,0.041834231644868845,-0.0028687603693455456,-0.014515879611158742
1761140474099272700,7.847272705078125,0.029860300734639165,-0.0005799918450415134,-0.0043368144947569815
1761140474109332000,7.85733203125,0.030757541835308072,0.008904770864266902,-0.00473453597491607
1761140474119391700,7.867391845703125,0.037491818526387215,0.004157046614214777,-0.017971737419767306
1761140474129450800,7.87745068359375,0.04302899438738823,0.016695242077391592,-0.008030883239721879
1761140474139509800,7.887509765625,0.03539806111752987,0.00378684332864359,-0.00596022357866168
1761140474149568800,7.89756884765625,0.05515197837948799,0.0016730295124463737,0.00013305179513990877
1761140474159628800,7.90762890625,0.06054010115861892,-0.002573960407543927,-0.013024581607477739
1761140474169687800,7.917687744140625,0.04273556439876556,-0.007657949140947312,-0.011518223031982779
1761140474179746800,7.927746826171875,0.051562429454922676,0.0145495170192793,0.00963372445963323
1761140474189805800,7.937805908203125,0.03809446059465408,-0.005290398025698959,-0.000351964375982061
1761140474199865900,7.947865966796875,0.037348610663414,-0.008335811869893222,-0.01172592009906657
1761140474209924600,7.957924560546875,0.03345978653132915,-0.01702511335257441,-0.01900581144155003
1761140474219984000,7.96798388671875,0.03944821329116821,-0.005672821472026407,-0.01209108188333921
1761140474230042600,7.978042724609375,0.050669280007481575,-0.0026352073417976497,-0.015773167929565533
1761140474240102700,7.9881025390625,0.04932137252986431,0.0024175277368165553,-0.01620468208147213
1761140474250161700,7.99816162109375,0.033758477216958994,0.008782423126231878,-0.01646453859405592
1761140474260220700,8.008220703125,0.03540449085831642,-0.011311247484106569,0.003379522903077304
1761140474270279700,8.01827978515625,0.031214053431153296,0.006230199626460671,0.0015788210235070435
1761140474280339700,8.028339599609374,0.042139352071285247,0.010560977106075732,0.0028980321296025067
1761140474290398700,8.038398681640626,0.0363029010027647,0.004898421299736946,-0.0017263671348802744
1761140474300457700,8.048457763671875,0.03720014210343361,0.008828381159808486,-0.004122285828087479
1761140474310516700,8.058516845703124,0.045730070039629936,0.0051382579375989735,-0.006990406876616179
1761140474320576800,8.06857666015625,0.05276303741633892,-0.004484123144112527,-0.006283628580439835
1761140474330635800,8.0786357421875,0.04827449382543564,0.005589033912401646,-0.011900043690111488
1761140474340694800,8.08869482421875,0.034655718317627905,0.008537471921835094,-0.004692660461412743
1761140474350753800,8.09875390625,0.030316227808594703,-0.004683353776950389,-0.02286910840673372
1761140474360813800,8.108813720703125,0.03735036422908306,-0.006501271652802824,-0.009193351147836074
1761140474370872800,8.118872802734375,0.05141688350439071,-0.016274842974543572,-0.02075691115888767
1761140474380931800,8.128931884765626,0.046777533265948294,-0.005407886925525963,-0.00873298536078073
1761140474390990800,8.138990966796875,0.04663140279352665,0.0068544324720278375,-0.00269671000437811
1761140474401051000,8.14905078125,0.039299744731187816,-0.011551741709094494,-0.014455555125512182
1761140474411109600,8.159109619140626,0.03525894490778446,0.009372150913998484,0.003872795445891097
1761140474421169000,8.1691689453125,0.046780455875396726,0.010733959052804857,0.005026851718686521
1761140474431227600,8.1792275390625,0.028525837260484695,-0.008839158282149583,-0.014114020811999216
1761140474441287700,8.18928759765625,0.051123453515768046,0.0015313742857426403,-0.009874483546102418
1761140474451347000,8.199346923828125,0.03585924888849258,0.0023143230906687677,-0.008441957391798496
1761140474461405700,8.20940576171875,0.028677812951803206,-0.006716174778807908,0.0025122842150274664
1761140474471465000,8.21946484375,0.045886137384176254,0.017702062766067683,-0.0010600121806375682
1761140474481524700,8.229524658203125,0.048133039528131485,-0.007261734631285071,-0.02452694035004824
1761140474491583700,8.239583740234375,0.0402022465288639,0.0051409613513387735,0.0003230579419061541
1761140474501642800,8.249642822265624,0.0388560926169157,-0.009396463371347636,0.0010553086060564965
1761140474511701800,8.25970166015625,0.038107904598116873,-0.003101053021568805,-0.00489598274747841
1761140474521761500,8.269761474609375,0.04214753537774086,-0.00655254518231377,-0.01660367307011038
1761140474531820800,8.27982080078125,0.04678630109429359,-0.002592171917669475,-0.007712337076151743
1761140474541879600,8.289879638671875,0.0414005164027214,0.004354578480310738,-0.0012664488723967224
1761140474551938800,8.299938720703125,0.044540567994117736,0.004237765433918684,0.006525620642770081
1761140474561998800,8.309998779296874,0.03810615103244781,-0.0071227828183211385,0.0031339871767908332
1761140474572057600,8.3200576171875,0.034519524717330934,0.009218549521174282,0.0055881753958761686
1761140474582116900,8.330116943359375,0.037809213912487025,0.000837711199466139,-0.005199340475071221
1761140474592175600,8.340175537109374,0.05097556947767734,0.009018423839192836,-0.00968268730104901
1761140474602236000,8.35023583984375,0.03630933074355125,0.003563355037383735,-0.00895248246351257
1761140474612294700,8.360294677734375,0.04483750511407852,0.006455843342188745,0.004769424625206738
1761140474622354000,8.37035400390625,0.053366848528385157,-0.000041080929059535263,0.004868154025636613
1761140474632412700,8.38041259765625,0.05231763173639774,0.011365334025211631,-0.0026936412644572552
1761140474642472700,8.39047265625,0.04603519046604633,-0.015544720335397869,-0.0260172519730404
1761140474652532000,8.400531982421874,0.04603694403171539,0.01226818288275972,-0.01037825008346699
1761140474662590700,8.4105908203125,0.03196984023451805,-0.0065935895787551995,-0.01154716599867679
1761140474672650000,8.42064990234375,0.04633095854222774,0.004195442395843565,-0.008074256590567529
1761140474682708700,8.430708740234374,0.043335283857584,0.009380352486763149,-0.002020984433591366
1761140474692768800,8.440768798828126,0.04572948551774025,0.0038119960362091657,-0.0035472258864901957
1761140474702827800,8.450827880859375,0.034656887361407276,0.0023672771206125617,-0.005841510836128145
1761140474712886800,8.46088671875,0.05051905788183212,-0.0007392740599811077,-0.005613419434987008
1761140474722945800,8.47094580078125,0.050069560548663135,0.002202862072829157,-0.0033102479259949176
1761140474733005800,8.481005859375,0.05829787518978118,-0.0012912271206267176,0.011962651464389636
1761140474743064600,8.491064697265625,0.04632803593277931,0.0052759493752382695,-0.001417639112425968
1761140474753123800,8.501123779296876,0.041539048090577124,0.005936605241056532,-0.013946454825904219
1761140474763182600,8.5111826171875,0.04019464774429798,0.007818583062756805,-0.004747450255416333
1761140474773242600,8.52124267578125,0.03256371447443962,0.004766428950522095,0.000006548471795395017
1761140474783302000,8.531302001953126,0.035409167033433914,0.006939681336376816,-0.001389709925884381
1761140474793360600,8.541360595703125,0.04184299947321415,0.010370897894073278,-0.005462174396030604
1761140474803420000,8.551419921875,0.03436228832900524,0.016116218346729872,-0.017027999429404736
1761140474813479700,8.561479736328126,0.049472179177403444,0.004886219405289739,-0.005760581953870132
1761140474823538700,8.57153857421875,0.04932137252986431,0.0032092626363970336,0.010873175727250054
1761140474833597700,8.58159765625,0.03585106558203697,-0.003927146848477423,0.0029584388136398047
1761140474843656700,8.59165673828125,0.04617430667579174,0.019818945322185755,-0.01695656902785413
1761140474853717500,8.601717529296875,0.05500467886328697,-0.002319090597331524,-0.0012400083900429308
1761140474863776500,8.611776611328125,0.03555295941829681,0.007906736270245164,0.0026136348308064042
1761140474873835500,8.62183544921875,0.027171500042080878,0.010847685092967003,-0.012033342080423608
1761140474883894500,8.63189453125,0.029714754784107206,0.0024000834116712213,-0.011838878954248502
1761140474893954600,8.64195458984375,0.03016249855160713,0.007457659062184393,-0.008652029079059138
1761140474904013300,8.652013427734374,0.04063713081479072,0.009821995307039469,-0.00913110869973898
1761140474914072600,8.662072509765625,0.047968204355239866,-0.00046893268600106235,-0.0012613891047891228
1761140474924131300,8.67213134765625,0.053205520486831664,0.0053869172027334565,-0.009462633075891062
1761140474934191400,8.68219140625,0.037491818526387215,0.011087229469884186,-0.013471960048796609
1761140474944250600,8.692250732421876,0.030904256829619406,0.0027883886095136402,-0.010658537462726235
1761140474954309400,8.702309326171875,0.04916121353209019,0.0030059586166404184,-0.015903479778347537
1761140474964368600,8.71236865234375,0.044375148299336434,-0.002924089019466191,-0.017643153919372708
1761140474974428400,8.722428466796876,0.04706862516701221,-0.007211173487827181,-0.02293965289229527
1761140474984487400,8.7324873046875,0.0398842666208744,0.0010502579716034233,-0.014808323219092562
1761140474994546400,8.74254638671875,0.04227671471536159,-0.003905976196285337,-0.011481553416559471
1761140475004605400,8.75260546875,0.0569464605808258,-0.003142572342045605,-0.013687155435746536
1761140475014665700,8.762665771484375,0.037195465928316115,-0.006253964094538241,-0.00987641064170748
1761140475024724500,8.772724365234374,0.01609539475440979,0.008638959534931927,-0.0008504793494939803
1761140475034783500,8.782783447265626,0.03614566461443901,0.017274941661488265,-0.023568351850425825
1761140475044842500,8.792842529296875,0.04452653946876525,0.004224869419727474,0.0029855186168104408
1761140475054902500,8.802902587890625,0.036896190720796584,0.0031013635488227006,-0.012613690118491649
1761140475064961500,8.81296142578125,0.04557575626075268,0.01238437487464398,0.0012353961470071226
1761140475075020500,8.8230205078125,0.0615869798630476,-0.005529558810126036,-0.0027739216927438973
1761140475085079600,8.83307958984375,0.04303250151872635,-0.006068213997781276,-0.0010233151657506824
1761140475095139600,8.8431396484375,0.05216039534807205,-0.0029009638722054657,0.0016534297628328202
1761140475105198600,8.853198486328125,0.05111410116553306,0.00723344011856243,-0.014904175675846636
1761140475115257600,8.863257568359375,0.05156301397681236,0.006957728449720889,-0.004590442195953801
1761140475125316600,8.873316650390626,0.037197219493985176,0.007038629932515323,-0.008851223179278894
1761140475135375600,8.883375732421875,0.03151040602922439,-0.008068557502143085,-0.001414533839887008
1761140475145435600,8.893435546875,0.04692132565081119,0.0017618585733696816,-0.014731211995426565
1761140475155494400,8.903494384765626,0.034500235494971276,0.01226589959412813,-0.0006997549003455787
1761140475165553700,8.9135537109375,0.044677346116304396,-0.0005473682170733809,-0.005334109303262085
1761140475175612400,8.9236123046875,0.049768531775474543,0.0032108700715936717,0.009305588483810424
1761140475185672400,8.93367236328125,0.041539632612466806,0.0022598164244554938,0.003795638556452468
1761140475195731500,8.9437314453125,0.05575345140397548,0.003884184489585459,0.007561292966594919
1761140475205790500,8.95379052734375,0.055007016950845714,0.009232285785581915,-0.005680475055519491
1761140475215849500,8.963849365234376,0.053659693995118135,-0.014957093173172325,-0.00013137129470705986
1761140475225909500,8.973909423828125,0.040189971569180485,0.0034065022415481505,-0.006334801645250991
1761140475235968500,8.983968505859375,0.03869242648780346,0.00756497362786904,-0.00719054169175215
1761140475246027500,8.994027587890624,0.05185936657488346,0.006193612209428102,-0.00044206294538453217
1761140475256086500,9.00408642578125,0.04482698372006416,-0.0020333507248200475,-0.007728584958054125
1761140475266146300,9.014146240234375,0.053804070901870726,0.005924056286737323,0.00017269881893880665
1761140475276205600,9.02420556640625,0.04916355161964893,-0.0033417664422653614,0.007417281386023387
1761140475286264300,9.034264404296875,0.04722001633644104,-0.005801434554066509,0.006111139824055135
1761140475296323600,9.044323486328125,0.04916647422909736,-0.0006371471260674297,-0.00419142380785197
1761140475306383600,9.054383544921874,0.031208792734146118,-0.010016915090940891,-0.0021336692941375077
1761140475316442400,9.0644423828125,0.03539630755186081,0.006748780140466988,-0.0036326848133932796
1761140475326501600,9.074501708984375,0.03195230457782745,-0.0014546557877212762,-0.006906482319673523
1761140475336560400,9.084560302734374,0.0455704955637455,-0.0040273010210134085,0.008135174731258302
1761140475346620700,9.09462060546875,0.04511982918679714,0.0022053645571693775,-0.010154807457979769
1761140475356679400,9.104679443359375,0.047213586595654486,0.01649431267781183,-0.010891058443812654
1761140475366738400,9.114738525390624,0.04302314916849136,0.008685027166362852,0.006079009386431426
1761140475376797400,9.12479736328125,0.05529343267679214,0.01635347943501547,-0.02050342958816327
1761140475386857500,9.134857421875,0.049908817028999325,0.005862571890465915,0.0022026428771205245
1761140475396916500,9.14491650390625,0.04841010290384292,0.011994937165640294,0.0011857848516199738
1761140475406975500,9.1549755859375,0.04840893386006355,-0.006649886343255639,-0.009304200244322419
1761140475417034800,9.16503466796875,0.03883037365376949,0.0015233736423775552,-0.0008021740952040999
1761140475427094500,9.175094482421875,0.038680736050009726,-0.003058346391003579,-0.008807767630042507
1761140475437153500,9.185153564453126,0.047508185628056525,0.007336352503765374,-0.004901526572275906
1761140475447212500,9.195212646484375,0.04571136533915996,0.004532894189283251,0.0004379347595386207
1761140475457271600,9.205271484375,0.04541150560975075,0.009924323170352727,-0.0022448654504958537
1761140475467330600,9.21533056640625,0.03837853823304176,-0.002152757587097585,-0.010861987612955272
1761140475477390600,9.225390625,0.03927753289937973,0.01679767953855917,-0.0006938000835943967
1761140475487449300,9.235449462890625,0.034337738409638406,0.0028224918085150417,-0.002929413648555055
1761140475497508600,9.245508544921876,0.054390346357226366,0.005495820937305688,-0.016496157575026153
1761140475507567400,9.2555673828125,0.042568975660204886,0.010991294814739375,0.013064456960139796
1761140475517627400,9.26562744140625,0.029997663378715515,0.004270991850085557,-0.005020495043136179
1761140475527686700,9.275686767578126,0.043162849900126456,-0.007561758757475763,0.0019407679373864084
1761140475537745400,9.285745361328125,0.04854921911358833,-0.00013926234021782873,-0.004272791081527247
1761140475547804700,9.2958046875,0.03972001596987247,0.005585782509390264,-0.01235830885162577
1761140475557864400,9.305864501953126,0.04570668916404247,0.0074718885169364506,-0.012489862809423357
1761140475567923500,9.31592333984375,0.03912146555483341,-0.0004851531684398651,-0.014530666188336908
1761140475577982500,9.325982421875,0.03283493263125419,0.010980408094543963,0.0059659500665497035
1761140475588041500,9.33604150390625,0.05079086056053638,0.001443805600143969,-0.007953607619274407
1761140475598101500,9.3461015625,0.04226093262434005,0.009660064477287232,-0.0005335223548114299
1761140475608160500,9.356160400390625,0.0395662867128849,0.0024904651088640093,0.0008767189024481922
1761140475618219500,9.366219482421876,0.045401568737626075,0.014617394623719155,-0.006813461140822619
1761140475628278500,9.376278564453125,0.03223579769432545,0.012954137586615979,-0.0037893092803657053
1761140475638338600,9.386338623046875,0.051388826453685754,0.011898253591824321,-0.006843326556123793
1761140475648397600,9.3963974609375,0.04585223511457443,-0.015490213669184594,-0.0005318966533057392
1761140475658456600,9.40645654296875,0.04360825558006763,0.00582790243588388,-0.006741409684764221
1761140475668515300,9.416515380859375,0.030440730971097944,0.004096384201850742,-0.0030156945593655107
1761140475678575600,9.42657568359375,0.048992286705970764,0.01088102110698819,0.008925430059805511
1761140475688634400,9.43663427734375,0.04973872115910053,0.011620222101733088,-0.004365127273788676
1761140475698693600,9.446693603515625,0.04225567192733288,0.004410126326140016,-0.005246294022491201
1761140475708752400,9.45675244140625,0.04001169239282608,-0.004685600532963872,0.005456283511361107
1761140475718811400,9.466811279296875,0.039711248141527176,-0.011707882118877022,0.01013639501845464
1761140475728871700,9.47687158203125,0.03537292667627334,0.011084032865799964,-0.005002868054900318
1761140475738930400,9.486930419921874,0.0424070630967617,0.0005636434984393417,-0.009461263102712109
1761140475748989700,9.49698974609375,0.03507248242497444,0.0020345928338356316,0.0022027981407474724
1761140475759048400,9.50704833984375,0.05527005180120468,0.00883893908644095,-0.009616179669788106
1761140475769108500,9.5171083984375,0.04120353252589702,0.007888305564410983,-0.012836255961144342
1761140475779167500,9.52716748046875,0.04150280773341655,0.0013688954667188226,-0.023362791941501197
1761140475789226500,9.5372265625,0.04688917694687843,0.0055250104991719125,0.016068141421303153
1761140475799285500,9.547285400390624,0.04733867428004741,0.008670925575774162,-0.009004459245922043
1761140475809345500,9.557345458984376,0.05137888958156109,0.011401921442244202,0.0004929985481780023
1761140475819404500,9.567404541015625,0.04569324516057968,-0.0010055420470423996,-0.008119493104936554
1761140475829463600,9.577463623046874,0.05961188039779663,-0.004962682174984365,-0.013594791844021528
1761140475839522600,9.5875224609375,0.02639408592879772,0.010628726846352219,-0.014790330904675646
1761140475849582000,9.59758203125,0.04030979855656624,0.000123973439540714,-0.00800037850360386
1761140475859640800,9.607640869140624,0.04614800319075584,-0.01100968898795545,-0.016778728242916985
1761140475869699800,9.617699951171875,0.04225801001489162,0.0010009024045430123,-0.0060882886714302
1761140475879758800,9.6277587890625,0.043457448932528495,-0.0005229461618699134,-0.0009829100901260972
1761140475889819000,9.63781884765625,0.05093991364240646,0.02477839436046779,-0.004988547268602997
1761140475899878100,9.647878173828126,0.04794365443587303,0.01211291925581172,0.0029281624063849446
1761140475909937000,9.65793701171875,0.049885436153411865,-0.006000080665014684,-0.0010394991155713797
1761140475919996000,9.667995849609374,0.031178982117772102,0.003569784778170287,-0.005934184955107048
1761140475930056000,9.678055908203126,0.0349216757774353,-0.0017395188773982227,-0.0020148469537496568
1761140475940115000,9.688114990234375,0.027141104903817177,0.0008504793494939803,0.003609468334587291
1761140475950174000,9.698174072265624,0.038216625669598575,0.014267430408578365,-0.00030977833522483707
1761140475960233000,9.70823291015625,0.04869125793278217,-0.004031666668877006,-0.009812405494786798
1761140475970292000,9.7182919921875,0.055126843938231467,0.0021520452010445295,-0.017749034579796714
1761140475980352000,9.72835205078125,0.04300619803369045,0.008339465131703763,-0.020700194269279017
1761140475990410800,9.73841064453125,0.038214872103929515,-0.0038875089578330516,-0.0115354207619559
1761140476000470000,9.748469970703125,0.04120645513534546,-0.0034221199357882142,0.020846945796208455
1761140476010529000,9.758529052734374,0.016814356678724288,-0.018885354266501963,0.00031732232086360455
1761140476020588800,9.7685888671875,0.05242752185165882,-0.003168400903046131,0.00460103665520437
1761140476030648000,9.77864794921875,0.057817398196458814,0.004898804892227053,-0.010377291102241724
1761140476040706800,9.788706787109374,0.04419920721054077,0.013502017260342836,-0.00330182715752162
1761140476050766000,9.79876611328125,0.04614332701563835,0.0069363934007473284,-0.018466398202069103
1761140476060825900,9.808825927734375,0.04120411704778671,-0.005381071983836591,-0.01091753545878455
1761140476070884900,9.818884765625,0.040005847173929215,0.013978439133055508,-0.01214407244590111
1761140476080943900,9.82894384765625,0.055119245153665536,0.00015480696922168136,0.005120667481981218
1761140476091003000,9.8390029296875,0.059307929015159605,-0.005343114593625069,-0.019146206292929128
1761140476101063000,9.84906298828125,0.03925882819890976,0.0008158464275300503,0.007961151604913175
1761140476111122000,9.859121826171876,0.04315291302800178,0.011197101318836212,-0.0005808777610305697
1761140476121181000,9.869180908203125,0.035819501399993896,0.01241900779660791,-0.005683014072477817
1761140476131240000,9.879239990234375,0.04554653016626835,-0.0019420374458655714,-0.01639291639626026
1761140476141300000,9.889300048828124,0.046446693876385683,-0.006853190363012254,-0.018768961345218122
1761140476151358700,9.899358642578125,0.05078735342919826,-0.0021274039501324293,-0.02142395109971985
1761140476161418000,9.90941796875,0.04854512746036052,0.0075601330559700725,-0.0045539826430846
1761140476171476700,9.919476806640626,0.04989011232852936,0.010925189042277633,-0.01683043103069067
1761140476181536000,9.929535888671875,0.032381343644857404,0.007273644264787435,-0.00965210949969478
1761140476191596000,9.939595947265625,0.03836626327335834,0.02089799099685624,-0.008350835909089072
1761140476201654800,9.94965478515625,0.04779518587589263,-0.0007165507715195417,-0.01803583389823325
1761140476211714000,9.959714111328125,0.04135901534855366,0.014911518732085823,-0.0064347092226147646
1761140476221772800,9.969772705078125,0.0388169296503067,0.0056034460302442305,0.014918085470190271
1761140476231833000,9.9798330078125,0.03672258771955967,-0.010649239911418407,0.007568179365107789
1761140476241891800,9.989891845703125,0.04226034810245037,-0.004682458727806807,-0.0008926014581695198
1761140476251951000,9.999951171875,0.046152679365873334,0.008312668456323445,0.004279631814267486
1761140476262009900,10.010009765625,0.033732758253812785,-0.005135992915276438,0.010444785114191472
1761140476272070000,10.02006982421875,0.038671968221664424,0.011161372418329119,0.00854757319074124
1761140476282129000,10.03012890625,0.05303776270449161,0.005755111194308847,-0.002070066006015986
1761140476292188000,10.04018798828125,0.041966333591938014,0.008847670382168143,0.009824634788697585
1761140476302247000,10.050246826171875,0.03912321912050247,-0.001171454932168126,0.002509352472424507
1761140476312307000,10.060306884765625,0.05318740030825138,0.0029159422456286844,-0.010727200518455356
1761140476322366000,10.070365966796874,0.05707856252789497,-0.0021048633247613907,0.004298199517419561
1761140476332425000,10.080425048828126,0.038224224454164506,0.004900028734933584,0.0005513868050649762
1761140476342484000,10.09048388671875,0.028349311649799345,-0.005809051604941487,0.015925627678073942
1761140476352543700,10.100543701171874,0.03269055572450161,-0.004655497655645013,0.003993517482420429
1761140476362603000,10.11060302734375,0.031790976536273954,-0.0006731500212103128,-0.007451695112278684
1761140476372661800,10.120661865234375,0.030741759744286536,0.0064249184809625146,-0.003309307211078703
1761140476382721000,10.130720947265624,0.04031681281924247,0.0014872976819984614,-0.003990649671899154
1761140476392779800,10.14077978515625,0.036572950115799904,0.0038507571440190074,0.0072857274282258
1761140476402839800,10.15083984375,0.032683541461825366,0.010513320305757225,0.009677554468205198
1761140476412899000,10.160899169921874,0.03657528820335865,0.012194167798478156,-0.00009533186694607138
1761140476422957800,10.170957763671876,0.03777180451154709,-0.01713438241332769,-0.012853398892190306
1761140476433017000,10.18101708984375,0.03552782497704029,-0.00515814994815737,0.013347575617302208
1761140476443076900,10.191076904296875,0.04031447473168373,-0.004956106303725391,0.006858177065383642
1761140476453136000,10.201135986328126,0.04540390682518482,-0.0053406303755939005,-0.012094232821650803
1761140476463195000,10.21119482421875,0.04989186589419842,0.014000778829026967,-0.00842980116312392
1761140476473254000,10.22125390625,0.04195873480737209,0.01947955729998648,-0.008935439997166394
1761140476483314000,10.23131396484375,0.041211715832352634,-0.004220869098044932,-0.004723347860621288
1761140476493373000,10.241373046875,0.039866730964183805,0.01000785500165075,-0.008946929505560546
1761140476503432000,10.251431884765625,0.047943069913983345,0.0030232933439314365,-0.007096579797985032
1761140476513491000,10.261490966796876,0.05467383947372436,0.004954425803292542,-0.010558995211543515
1761140476523551000,10.271551025390625,0.030431963142752646,0.008369367079623043,-0.008392145167011767
1761140476533610000,10.28160986328125,0.053473231512308116,0.007884652302600444,-0.005784821345983073
1761140476543669000,10.2916689453125,0.025637130081653595,0.006943444196041673,0.003539462705142796
1761140476553727700,10.301727783203125,0.03626139994859695,0.0022843298112042248,0.0002034866828471422
1761140476563787000,10.311787109375,0.03251870628893375,-0.001331942723505199,-0.011438992916466668
1761140476573846800,10.3218466796875,0.04792962591052055,0.008030344383604823,-0.0007182586714159696
1761140476583906000,10.331906005859375,0.035956279522180556,-0.00511400027917698,-0.0022121596241369843
1761140476593964800,10.34196484375,0.05451017334461212,0.006497161733265966,-0.003543189032189548
1761140476604023800,10.35202392578125,0.037602877685427666,0.009802249426953494,-0.006287318374868482
1761140476614084000,10.362083984375,0.05480827950835228,-0.0009159640674479305,0.0007709478398784994
1761140476624142800,10.372142822265625,0.03789981480538845,0.01139846910983324,0.00948189489878714
1761140476634202000,10.3822021484375,0.042239889836311335,0.014964856354519725,-0.0035057613649405535
1761140476644260900,10.3922607421875,0.05555880561470985,-0.002751655062008649,-0.010555661610141397
1761140476654321000,10.40232080078125,0.04268997169137001,0.008702562823053449,0.0031442893750965595
1761140476664380000,10.4123798828125,0.04239420361518859,0.004631185198295861,0.0036481015782337633
1761140476674439000,10.42243896484375,0.020544190856814384,0.000399612043146044,-0.008735679641366005
1761140476684498000,10.432497802734375,0.03551087384223938,0.0049636868219822645,-0.01566154251494445
1761140476694558000,10.442557861328124,0.043893502262234686,-0.008150500164553523,-0.01228773696660064
1761140476704617000,10.452616943359375,0.03147416567206383,0.0075836600620299574,-0.017304934940952806
1761140476714676000,10.462676025390625,0.04269406334459781,0.005159191127773374,-0.0066284964953549205
1761140476724735000,10.47273486328125,0.06483984417915344,0.01678628136171028,-0.006303018267499283
1761140476734794000,10.4827939453125,0.03745499364733696,-0.0069670077347196635,-0.012008253304939716
1761140476744854000,10.49285400390625,0.045532501640915865,0.003576451980974525,-0.011102463571634143
1761140476754912800,10.502912841796874,0.0456792166352272,0.016839564185217024,-0.003446861651400104
1761140476764972000,10.512971923828125,0.046128129446506495,0.004905161567777395,-0.009659854414733127
1761140476775030800,10.52303076171875,0.05510697019398212,0.012643774729501456,-0.01000602837074548
1761140476785090800,10.5330908203125,0.054959670677781104,-0.006457633440475911,-0.016974049885617567
1761140476795150000,10.543150146484376,0.062143444702029225,0.010199523382540791,-0.015612424409901722
1761140476805208800,10.553208740234375,0.04762801261544227,0.010756828471738844,-0.0083560783397872
1761140476815268000,10.56326806640625,0.04463526054024696,0.0060573455438949165,-0.015458768218150362
1761140476825327900,10.573327880859376,0.03715338035225868,0.00021176132084801792,-0.022781859381543472
1761140476835387000,10.583386962890625,0.04538344855904579,-0.006373425755742937,-0.015180033475160597
1761140476845446000,10.59344580078125,0.03909750015735626,-0.002982596007362008,-0.010239526599366217
1761140476855505200,10.603505126953126,0.04104103544056415,0.002997556114476174,-0.008865461767185478
1761140476865565200,10.613565185546875,0.049722939068078995,-0.012181326583214103,-0.009648218775866553
1761140476875624200,10.623624267578125,0.03685527418851852,0.016444664849806577,-0.001009094844153151
1761140476885683000,10.633682861328126,0.037602877685427666,-0.005566182759776711,0.0008763079104945063
1761140476895742200,10.6437421875,0.03535831362903118,-0.0052672911447472865,-0.004059604988573119
1761140476905802200,10.65380224609375,0.040895489490032196,0.0028794644264504314,-0.006223404559493065
1761140476915861200,10.663861328125,0.03820201262235641,0.004986885034479201,0.010411074640834704
1761140476925920300,10.673920166015625,0.03939794440865516,-0.005852781148813665,0.005034834095742553
1761140476935979000,10.68397900390625,0.034758009648323054,0.0007455394039861858,-0.012075518988026305
1761140476946038300,10.694038330078126,0.054657472860813135,-0.0028260720050893723,-0.024039787020767107
1761140476956098000,10.70409814453125,0.04986848501861095,-0.002486391721945256,-0.004739066019561142
1761140476966157300,10.7141572265625,0.02368131983876228,0.00003287935629487037,0.0031461342723108827
1761140476976216000,10.724216064453126,0.03714928869903088,0.001055865728482604,-0.0019441928703337907
1761140476986275000,10.734275146484375,0.024131401693820952,0.0019466770883649588,-0.02196343740443699
1761140476996335000,10.744335205078125,0.03610182547271251,0.009507467731460929,0.010262304686754941
1761140477006394000,10.75439404296875,0.03744856390655041,0.0014771050815470515,-0.005539797076350077
1761140477016453000,10.764453125,0.0328086291462183,0.000008457301091402769,-0.0070674450350459665
1761140477026512100,10.77451220703125,0.04044190050363541,0.02395761602949351,-0.023393232745537534
1761140477036572200,10.784572265625,0.0358019657433033,0.0028148747576400637,0.0025698048222344365
1761140477046631200,10.794631103515625,0.036999651095271105,-0.002997921440657228,0.009336312415637074
1761140477056690200,10.804690185546875,0.03654956924021244,0.015625037296302616,0.0012813633137382567
1761140477066749200,10.814749267578126,0.03834522048532962,0.012641418375633656,-0.011602047124225646
1761140477076808200,10.82480810546875,0.04792144260406494,0.007482501242496073,-0.013377641962002963
1761140477086868000,10.834867919921875,0.04417816442251205,0.011218801693990825,-0.006940685983374714
1761140477096927200,10.84492724609375,0.05046352830231189,-0.000752352737262845,0.0026854305585380643
1761140477106986000,10.854986083984375,0.04253156625926494,-0.010010594948008655,-0.01505867211781442
1761140477117045200,10.865045166015625,0.04716974745392799,0.002926828965824097,-0.0030665388306137173
1761140477127105300,10.875105224609374,0.042080315360426904,-0.00758988887341693,-0.002494739425182342
1761140477137164000,10.8851640625,0.050013446447253224,0.00790218795929104,-0.0020963420915883035
1761140477147223300,10.895223388671875,0.04881517657339573,-0.0017817323176190255,-0.0049456214423291385
1761140477157282000,10.905281982421876,0.041485856598615645,0.007498813056480139,-0.004461052795778959
1761140477167342000,10.915342041015625,0.03759995507597923,0.0031169081778265532,-0.007776333089917898
1761140477177401000,10.925401123046875,0.035355391019582745,0.00028464389396831393,-0.014350377717986702
1761140477187460000,10.935460205078124,0.035653497183322905,-0.009906623116880654,-0.011426644891547039
1761140477197519000,10.94551904296875,0.04208849866688251,-0.015676274293195454,-0.006979008699767291
1761140477207579100,10.9555791015625,0.03445464278757572,0.009796203278657049,-0.01444684209609404
1761140477217638000,10.965637939453124,0.04462824627757072,0.014577354874275623,0.0002749718833249062
1761140477227697200,10.975697265625,0.04223462913930416,0.0008938618334941565,-0.01577895834953524
1761140477237756000,10.985755859375,0.030712533649802205,0.007325502316188066,-0.017282019856246188
1761140477247815200,10.995815185546874,0.03714636608958244,0.014420228083804248,-0.0064550761572085315
1761140477257875200,11.005875244140626,0.05046352830231189,0.011600604085810482,0.008948272079275921
1761140477267934200,11.015934326171875,0.029810616374015806,-0.0006943572060205042,-0.002189637265074998
1761140477277993200,11.0259931640625,0.03579553600251675,0.0037116044016554947,-0.020561141991615295
1761140477288052000,11.036052001953125,0.03280219940543175,0.005634005565289407,-0.011365178761584684
1761140477298112300,11.0461123046875,0.043726913523674006,-0.003687894732505083,-0.008328724541980772
1761140477308171000,11.0561708984375,0.048069326642155644,0.005746836556307971,-0.008897226878628135
1761140477318230300,11.066230224609376,0.046724341773986815,0.01793961611529812,-0.005588102330639958
1761140477328289000,11.0762890625,0.03535246841013431,-0.007918262311257421,-0.020607922009099274
1761140477338349000,11.08634912109375,0.05405833792388439,0.000019983342103660106,-0.004487767272768542
1761140477348408300,11.096408203125,0.0497182628929615,0.004626070631761104,-0.0059945733728352935
1761140477358467000,11.106467041015625,0.03415536758005619,0.005135773719567805,-0.017505069756088776
1761140477368526300,11.1165263671875,0.04447919319570064,0.00528040635464713,0.005905716912448406
1761140477378585000,11.126585205078126,0.027122400203347205,0.012300514249783009,-0.006595361410733312
1761140477388645000,11.13664501953125,0.04657470417022705,-0.004303798141144215,-0.0042293355322908606
1761140477398704000,11.1467041015625,0.0365513228058815,0.009239007787313312,-0.01749342498406768
1761140477408763100,11.15676318359375,0.03086392481923103,0.010796539427619427,-0.00818909687558189
1761140477418822100,11.166822265625,0.05241349332630634,0.008243073818832635,0.005991121040424332
1761140477428882200,11.176882080078125,0.04702770863473415,-0.005466631375439465,-0.00018082732646726072
1761140477438941200,11.186941162109376,0.03744914842844009,0.014871223254315554,-0.019209270724933593
1761140477449000200,11.197000244140625,0.03056640317738056,0.011818137560319155,-0.00020292042726650832
1761140477459059200,11.20705908203125,0.04268763360381126,-0.001543503114953637,-0.012667520931269972
1761140477469119000,11.217118896484376,0.05510638567209243,0.01106193063184619,-0.005512251482298597
1761140477479178200,11.22717822265625,0.03939502179920673,0.01298290702337399,-0.008062520487001165
1761140477489237000,11.237237060546875,0.038050621452927584,0.00417076461231336,0.00006247991011478007
1761140477499296300,11.247296142578126,0.06558452506661415,0.005129818902816623,-0.014256269693747162
1761140477509356000,11.25735595703125,0.058549219602346415,0.008914598138537257,-0.0007361231216695159
1761140477519415000,11.2674150390625,0.0595955137848854,0.012837507203314452,-0.001988853995967656
1761140477529474000,11.27747412109375,0.0420890831887722,0.013609843282680958,-0.009957960578473285
1761140477539533000,11.287532958984375,0.04298398620188236,0.0009413177044130861,0.005951958073815331
1761140477549592000,11.297592041015625,0.05420680648386478,-0.0005643558844923973,-0.0012517262273002414
1761140477559652000,11.307652099609374,0.033708792856335636,0.006698821785207838,-0.014192894734488799
1761140477569711000,11.317711181640625,0.04298690881133079,0.010536299322545527,-0.006265563200786709
1761140477579770000,11.32777001953125,0.03550502862334251,0.012105667531117796,-0.013367869486659764
1761140477589829000,11.3378291015625,0.04957330146431923,0.0042301483830437065,-0.009399751306977122
1761140477599889200,11.34788916015625,0.04373860396146774,0.0024816424815915523,-0.015891140886582434
1761140477609948200,11.3579482421875,0.04538344855904579,-0.007708382420241832,-0.014782439859164878
1761140477620007000,11.3680068359375,0.03236380798816681,0.005946121988072991,0.00043324945126660164
1761140477630066200,11.378066162109375,0.04927285721302032,0.002546615742892027,-0.01792804440851323
1761140477640126200,11.388126220703125,0.038649756389856335,0.008192695338465273,-0.008335309546394273
1761140477650185200,11.398185302734374,0.028327099817991256,0.0028932189571671185,-0.0027077976539731023
1761140477660244200,11.408244140625,0.040000001955032345,-0.010453443344682454,0.009593063655681907
1761140477670303200,11.41830322265625,0.06573825432360172,-0.0003665682900696993,0.006236802897183224
1761140477680362200,11.4283623046875,0.03431435753405094,0.0017132153923623264,0.0019105097964406013
1761140477690422000,11.438422119140625,0.04179857580959797,0.0020850443794392048,-0.00788493543039076
1761140477700481300,11.448481201171875,0.03806231189072132,0.00463617190066725,-0.0057686282630078495
1761140477710540000,11.4585400390625,0.042702831172943115,0.02321138250576332,-0.007582372287241741
1761140477720599300,11.468599365234375,0.03731587743759155,0.005724405528791249,-0.011602869108133018
1761140477730659300,11.478659423828125,0.05197802451848983,0.007702482402417808,-0.013217556029465049
1761140477740718000,11.488718017578124,0.044045477953553194,0.00664294514581561,-0.014001098489435388
1761140477750777300,11.49877734375,0.047939562782645224,0.008756558032613247,0.004833621568372473
1761140477760836000,11.508836181640625,0.04450023598372936,0.012342106635496019,-0.005343096327316016
1761140477770896100,11.518896240234374,0.04105857109725475,0.006167893246281891,0.00800145621583797
1761140477780955100,11.528955078125,0.06260697056055069,0.011927662349399178,-0.010146779415151104
1761140477791014100,11.53901416015625,0.04659574695825577,0.006006346009019762,-0.007878715752158313
1761140477801073200,11.5490732421875,0.03507482051253319,0.0050589821563102304,-0.0012848247793037443
1761140477811132200,11.559132080078125,0.04554769921004772,0.004387750097550451,-0.014935374531708658
1761140477821192000,11.56919189453125,0.04091010253727436,-0.0035572358238510787,-0.010362330995127558
1761140477831251200,11.579251220703124,0.03118248924911022,0.005976060468610375,0.005673405993916094
1761140477841310000,11.58931005859375,0.04390227009057998,0.017325831598509103,-0.005499976522615179
1761140477851369200,11.599369140625,0.04509586378931999,0.01055650186035782,-0.005347197113698348
1761140477861429200,11.60942919921875,0.03476970008611679,0.005413969606440514,-0.007131696777138858
1761140477871488300,11.61948828125,0.041055648487806316,0.005578549051005393,-0.007063837439008056
1761140477881547300,11.62954736328125,0.04614566510319709,0.0021833901873789725,-0.0011581113934051245
1761140477891606300,11.639606201171874,0.04300502898991108,0.004174710135068744,-0.01639940093597397
1761140477901666000,11.649666015625,0.04435293646752834,0.014117299614474176,-0.010150980666233225
1761140477911725300,11.659725341796875,0.03462240056991577,0.002132080125249922,-0.003133073861338198
1761140477921784000,11.6697841796875,0.031331542330980296,0.010395648742839693,-0.014982309812819585
1761140477931843300,11.67984326171875,0.034472762966156006,-0.005782200130634009,-0.014204731302754953
1761140477941902000,11.689902099609375,0.038811084431409834,-0.0076935319109819825,-0.006794464179407805
1761140477951962000,11.699962158203125,0.04150456129908561,0.012916508989967405,-0.002636038458859548
1761140477962021400,11.710021484375,0.04224690409898758,-0.00751556326188147,-0.003647005599690601
1761140477972080000,11.720080078125,0.021274843218922614,0.0010375446205027402,-0.020103342620981856
1761140477982139400,11.730139404296875,0.06331307300329209,-0.0000017352993600070475,-0.0024195187645033
1761140477992199200,11.74019921875,0.04954582893550396,0.010392360807210206,0.006820813330216333
1761140478002258200,11.750258056640625,0.04565875836908817,-0.003814772515185177,-0.010435122236702591
1761140478012317200,11.760317138671875,0.04147065902948379,0.0006768215493299066,-0.004894850236317142
1761140478022376200,11.770376220703126,0.05883446628451347,-0.005224438383709639,-0.026221999031212178
1761140478032436500,11.7804365234375,0.062139353048801416,-0.004988273273967206,-0.006180259537510574
1761140478042495200,11.7904951171875,0.05556757344305515,0.01329453025581315,-0.004676293848501518
1761140478052554500,11.800554443359376,0.041509821996092794,0.01283600936597213,-0.010207578824833035
1761140478062613200,11.81061328125,0.040762218499183656,0.00537195709561929,-0.02028313790098764
1761140478072672300,11.82067236328125,0.04405541482567787,0.015853420958388594,-0.016332482312759383
