time,seconds_elapsed,z,y,x
1761140466353638400,0.101638427734375,-0.0010869581019505858,0.0004043411463499069,0.0002788118436001241
1761140466363697400,0.111697509765625,0.0016667504096403718,-0.0014473549090325832,0.0005198279395699501
1761140466373756400,0.12175634765625,0.00012124929344281554,0.0021120710298419,-0.0015118932351469994
1761140466383816400,0.13181640625,-0.0003232323215343058,-0.0009396453388035297,0.0014143881853669882
1761140466393875500,0.14187548828125,-0.00044266536133363843,-0.0030171165708452463,-0.0038818279281258583
1761140466403934500,0.1519345703125,-0.00007994280895218253,0.0003174273297190666,0.001943836803548038
1761140466413994200,0.161994140625,-0.0013246750459074974,-0.002985600382089615,-0.000602619256824255
1761140466424053500,0.172053466796875,0.0001765487832017243,0.0009321756660938263,-0.00201595900580287
1761140466434112300,0.1821123046875,-0.0005414193728938699,0.0004142387770116329,-0.0004492724547162652
1761140466444171500,0.192171630859375,0.0013073470909148455,0.0007207687012851238,-0.0002759007038548589
1761140466454231600,0.2022314453125,-0.0013343221507966518,-0.0019983735401183367,-0.0003727113362401724
1761140466464290300,0.212290283203125,0.00007715326501056552,-0.00039381906390190125,-0.0007868328830227256
1761140466474349600,0.222349609375,0.0004503235104493797,0.0024304776452481747,0.0008169838692992926
1761140466484409300,0.232409423828125,0.0009882820304483175,0.0007462948560714722,0.000058249279391020536
1761140466494468400,0.24246826171875,-0.0008854367188178003,-0.00011277478188276291,-0.002697605174034834
1761140466504527400,0.25252734375,0.0011934267822653055,0.0013421103358268738,-0.0005460373940877616
1761140466514586400,0.26258642578125,0.0026792988646775484,-0.0005291146226227283,-0.0012043425813317299
1761140466524646400,0.272646484375,0.0008284019422717392,0.002028052695095539,-0.0014043459668755531
1761140466534705400,0.282705322265625,-0.00020485918503254652,-0.0020625360775738955,0.00028557784389704466
1761140466544764200,0.29276416015625,-0.00144109851680696,0.003185488749295473,0.0018909312784671783
1761140466554824400,0.302824462890625,0.0011325322557240725,-0.0000915704295039177,-0.000398879696149379
1761140466564883500,0.312883544921875,-0.0009817513637244701,-0.0002300548367202282,-0.0018052952364087105
1761140466574942500,0.3229423828125,0.0015496329870074987,0.0021230122074484825,0.0008479576790705323
1761140466585001500,0.33300146484375,0.001237776828929782,-0.0022168748546391726,-0.002200296614319086
1761140466595061200,0.343061279296875,-0.001253134454600513,0.000784341711550951,-0.0006059089209884405
1761140466605120500,0.35312060546875,0.0007660741684958339,-0.0014705569483339787,-0.0007539807120338082
1761140466615179300,0.36317919921875,0.00035115948412567377,-0.0005652778781950474,-0.0020680236630141735
1761140466625239300,0.3732392578125,0.00020708248484879732,0.00008746283128857613,-0.00033324037212878466
1761140466635298600,0.383298583984375,0.001098299166187644,0.00027313176542520523,0.00450256047770381
1761140466645357300,0.393357421875,0.0012996341101825237,-0.0004951902665197849,-0.0006439982680603862
1761140466655416600,0.40341650390625,0.0010109127033501863,0.0004606833681464195,-0.0006302987458184361
1761140466665476400,0.413476318359375,0.0013794942060485482,-0.0015574598219245672,-0.0006398861296474934
1761140466675535400,0.423535400390625,-0.0008062367560341954,-0.0005113985389471054,-0.0019168758299201727
1761140466685594400,0.433594482421875,0.0016183051047846675,-0.0018568274099379778,-0.000020971521735191345
1761140466695654400,0.443654296875,0.000823071924969554,0.0007869484834372997,0.00013160007074475288
1761140466705713200,0.453713134765625,0.0003133428981527686,0.001491620671004057,-0.0006811966304667294
1761140466715772400,0.4637724609375,0.0003086135839112103,0.00009339209645986557,0.0003845661995001137
1761140466725831200,0.4738310546875,0.0005754623562097549,0.0003605070523917675,0.0017086898442357779
1761140466735891500,0.483891357421875,-0.00045518192928284407,0.0013220482505857944,0.0009325739811174572
1761140466745950500,0.493950439453125,0.0012673505116254091,-0.001196503173559904,0.0010100719518959522
1761140466756009200,0.50400927734375,-0.001378730172291398,0.00003678537905216217,-0.0025452692061662674
1761140466766069500,0.514069580078125,0.0018815116491168737,-0.0002633528783917427,-0.0016083691734820604
1761140466776128300,0.524128173828125,-0.0015342789702117443,-0.0015221086796373129,0.002415487077087164
1761140466786187500,0.5341875,-0.0003041648305952549,-0.001331958919763565,0.0041460092179477215
1761140466796246300,0.544246337890625,0.0007788260700181127,0.00024202605709433556,0.000059714599046856165
1761140466806306300,0.554306396484375,0.00014339585322886705,0.002212498802691698,0.001740435604006052
1761140466816365600,0.564365478515625,-0.00019548670388758183,0.00008901208639144897,0.002779301954433322
1761140466826424300,0.57442431640625,0.001186960143968463,0.0014956938102841377,0.000009880634024739265
1761140466836484400,0.584484375,0.0009878120617941022,0.002583683468401432,0.0005979632842354476
1761140466846543400,0.59454345703125,-0.0008558943518437445,0.0012917844578623772,-0.00005397858330979943
1761140466856602400,0.604602294921875,-0.0012445778120309114,-0.0007832660339772701,0.0009471896919421852
1761140466866661400,0.614661376953125,-0.0017021088860929012,-0.0003544972278177738,0.0011567805195227265
1761140466876721400,0.624721435546875,-0.0016064579831436276,0.0010623973794281483,-0.0028891137335449457
1761140466886780400,0.634780517578125,-0.0014389451825991273,0.0013082069344818592,0.002798865782096982
1761140466896839400,0.64483935546875,-0.0006711517344228923,-0.0008257613517343998,-0.0015399237163364887
1761140466906899500,0.6548994140625,-0.0006170895067043602,-0.000502187293022871,0.0018952878890559077
1761140466916958200,0.664958251953125,0.0020892007742077112,-0.0015705851837992668,-0.00017832074081525207
1761140466927017500,0.675017578125,-0.00032495480263605714,0.00016206735745072365,0.000893068965524435
1761140466937076200,0.685076171875,-0.00013637635856866837,0.00012340210378170013,-0.0003786887973546982
1761140466947136500,0.695136474609375,0.0012788274325430393,0.014989166520535946,0.006580151151865721
1761140466957195300,0.7051953125,0.0022553426679223776,-0.011194571852684021,-0.003411598037928343
1761140466967254500,0.715254638671875,0.002328047063201666,0.005648590158671141,0.0034036976285278797
1761140466977314600,0.725314453125,-0.0005901180556975305,0.0009930138476192951,-0.002326718531548977
1761140466987373300,0.735373291015625,-0.0005722748464904726,-0.0010336516425013542,0.0005239290185272694
1761140466997432600,0.7454326171875,0.001958036795258522,0.001674311701208353,-0.0013948840787634254
1761140467007491300,0.7554912109375,0.0010943738743662834,0.00258884159848094,0.0019047724781557918
1761140467017551400,0.76555126953125,-0.0020104795694351196,0.0006737085059285164,0.001238953904248774
1761140467027610400,0.7756103515625,0.00016585557023063302,0.0014566774480044842,0.0016988818533718586
1761140467037669400,0.78566943359375,0.0000948617234826088,-0.0018534737173467875,0.0004956098273396492
1761140467047729400,0.7957294921875,-0.00014908378943800926,-0.00043054670095443726,0.0010623304406180978
1761140467057788400,0.805788330078125,-0.00003187480615451932,-0.0007944381795823574,0.001867018174380064
1761140467067847400,0.815847412109375,-0.000777559878770262,-0.0005004252307116985,0.0014941757544875145
1761140467077906400,0.825906494140625,0.000686627987306565,-0.00010056328028440475,-0.0015012118965387344
1761140467087966500,0.835966552734375,0.0006975469295866787,-0.0009818035177886486,0.000752887746784836
1761140467098025200,0.846025146484375,-0.00011198321590200067,0.0008687600493431091,0.0013277764664962888
1761140467108084500,0.85608447265625,0.001353554311208427,-0.0012484528124332428,0.0030702827498316765
1761140467118144300,0.866144287109375,-0.0012702131643891335,-0.0013500223867595196,0.00016309088096022606
1761140467128203500,0.87620361328125,-0.000926665379665792,0.0003421502187848091,-0.0008435839554294944
1761140467138262300,0.88626220703125,0.0022181931417435408,-0.0006300122477114201,-0.0011748643592000008
1761140467148321300,0.8963212890625,0.0009324189741164446,-0.000921362079679966,-0.0020877958741039038
1761140467158381600,0.906381591796875,-0.0003668596036732197,-0.004742623306810856,-0.003509155008941889
1761140467168440300,0.9164404296875,-0.00009361922275274992,-0.005237704608589411,-0.0015365516301244497
1761140467178499600,0.92649951171875,0.001472154981456697,-0.004433962516486645,-0.0010599959641695023
1761140467188559400,0.936559326171875,-0.00030230922857299447,0.00003695208579301834,0.0009653379675000906
1761140467198618400,0.946618408203125,-0.00009658752242103219,-0.0007428699173033237,0.0016938759945333004
1761140467208677400,0.956677490234375,-0.00046516902511939406,-0.001451004296541214,0.0005937241367064416
1761140467218736400,0.966736328125,0.0005595377879217267,0.00020781299099326134,-0.0005006619612686336
1761140467228796400,0.97679638671875,-0.0008719113538973033,0.0010160822421312332,0.0012716717319563031
1761140467238855400,0.98685546875,-0.00023816042812541127,-0.0023117444943636656,0.0007798428414389491
1761140467248914400,0.99691455078125,-0.0005369671271182597,-0.0003564516082406044,-0.0018686708062887192
1761140467258973400,1.006973388671875,0.003507399931550026,0.001202835701406002,0.00003736303187906742
1761140467269033500,1.017033447265625,-0.0015539375599473715,-0.0003159651532769203,0.0010608158772811294
1761140467279092200,1.02709228515625,-0.001623085467144847,0.0016871141269803047,0.001208684640005231
1761140467289151500,1.0371513671875,0.0006315468344837427,-0.003423491958528757,0.0003423583402764052
1761140467299211300,1.047211181640625,-0.0011511672055348754,-0.0002739899791777134,-0.00006480241427198052
1761140467309270300,1.057270263671875,0.0011822945671156049,0.0009760977700352669,0.002049214905127883
1761140467319329500,1.06732958984375,-0.000859875581227243,0.0002829139120876789,-0.0007866773521527648
1761140467329388300,1.07738818359375,0.0011982152936980128,0.0008027632720768452,-0.00027481780853122473
1761140467339448600,1.087448486328125,0.0010454669827595353,-0.00025057094171643257,0.0025951494462788105
1761140467349507300,1.09750732421875,0.0020513429772108793,0.00030443165451288223,-0.0013239583931863308
1761140467359566300,1.10756640625,-0.00013316510012373328,-0.002608946757391095,-0.00009058968862518668
1761140467369626400,1.11762646484375,-0.001069266116246581,-0.0007359455339610577,0.0010572327300906181
1761140467379685400,1.127685302734375,-0.0008492519264109433,0.0018830071203410625,0.0010549488943070173
1761140467389744400,1.137744384765625,0.0015233582817018032,-0.0022267831955105066,0.0029111721087247133
1761140467399803400,1.147803466796875,-0.0003880891599692404,-0.0007385602220892906,-0.0012088203802704811
1761140467409863400,1.157863525390625,0.0011522832792252302,0.00040659867227077484,-0.000015990575775504112
1761140467419922400,1.16792236328125,0.001019960967823863,-0.000260266475379467,-0.00010147667489945889
1761140467429981400,1.1779814453125,-0.0004439787589944899,-0.0007164659909904003,-0.0007291837246157229
1761140467440041200,1.188041259765625,0.0018142603803426027,-0.0016223653219640255,0.00046403074520640075
1761140467450100500,1.1981005859375,0.001244077575393021,-0.0005776071920990944,-0.0018401362467557192
1761140467460159200,1.2081591796875,0.0010351139353588223,-0.0024646578822284937,0.0009012091322802007
1761140467470218500,1.218218505859375,-0.00024453492369502783,0.0009055724367499352,0.0003344884607940912
1761140467480278500,1.228278564453125,0.0022166373673826456,-0.001585651421919465,-0.0004369767848402262
1761140467490337300,1.238337158203125,-0.0011946057202294469,0.00043435627594590187,0.0005087117315270007
1761140467500396500,1.248396484375,0.0012558480957522988,0.0008210414089262486,-0.0012563572963699698
1761140467510456300,1.258456298828125,-0.0000371165806427598,0.002572336234152317,-0.0017764725489541888
1761140467520515300,1.268515380859375,0.0019249655306339264,0.0011458923108875751,0.0012679429491981864
1761140467530574300,1.27857421875,-0.0025113283190876245,-0.00007729744538664818,-0.001000537653453648
1761140467540633300,1.28863330078125,-0.002035807352513075,-0.0020863318350166082,0.0009876281255856156
1761140467550693400,1.298693359375,-0.0014440530212596059,0.002835456281900406,-0.000790298159699887
1761140467560752400,1.30875244140625,0.00116057472769171,-0.0006131129339337349,0.00140138971619308
1761140467570811400,1.318811279296875,0.00013658928219228983,0.00213793246075511,-0.00016161962412297726
1761140467580870400,1.328870361328125,0.00012963125482201576,-0.00038589024916291237,-0.0017663538455963135
1761140467590930400,1.338930419921875,-0.0014235242269933224,0.001860485877841711,-0.0005551480571739376
1761140467600989400,1.348989501953125,-0.0003129236283712089,0.003105397801846266,0.0012082008179277182
1761140467611048400,1.35904833984375,0.000210387515835464,0.004929396789520979,0.0019480269402265549
1761140467621108200,1.369108154296875,0.0015631153946742415,0.005429586861282587,0.0021000683773308992
1761140467631167500,1.37916748046875,0.0010206295410171151,0.0009605363011360168,0.0014965960290282965
1761140467641226200,1.389226318359375,-0.0005917577655054629,-0.000364597886800766,-0.0005064004217274487
1761140467651285500,1.399285400390625,0.0017116102389991283,-0.00241203629411757,-0.0009191904100589454
1761140467661345500,1.409345458984375,-0.0014526376035064459,0.0006807954050600529,-0.00023868947755545378
1761140467671404300,1.419404296875,-0.00009708869038149714,-0.00035490794107317924,0.00008994463132694364
1761140467681463600,1.429463623046875,-0.0011191763915121555,-0.0011530574411153793,0.00004680099664255977
1761140467691523300,1.4395234375,0.0013327960623428226,-0.0010100454092025757,0.0018961000023409724
1761140467701582300,1.449582275390625,0.0005763726076111197,-0.0009742500260472298,0.0007019062759354711
1761140467711641300,1.459641357421875,0.0007859634351916611,-0.001614740351215005,0.0003402489819563925
1761140467721700400,1.469700439453125,-0.00025175977498292923,-0.0018633222207427025,-0.00040836696280166507
1761140467731760400,1.479760498046875,-0.00016440812032669783,-0.001957598142325878,0.0007674186490476131
1761140467741819400,1.4898193359375,0.00029910088051110506,-0.0015588013920933008,-0.0018769411835819483
1761140467751878400,1.49987841796875,0.0017366751562803984,-0.0017635985277593136,-0.0012801268603652716
1761140467761938400,1.5099384765625,0.0006634247838519514,-0.008006976917386055,-0.0026706266216933727
1761140467771997400,1.51999755859375,0.0014530520420521498,-0.004349658265709877,-0.0008807159028947353
1761140467782056400,1.530056396484375,0.0013903903309255838,-0.00262348516844213,-0.0005869868327863514
1761140467792115500,1.540115478515625,0.0005504293367266655,-0.0012823170982301235,0.0013842849293723702
1761140467802175200,1.55017529296875,0.001990847522392869,-0.001156458631157875,-0.00033608643570914865
1761140467812234500,1.560234375,-0.0009610001579858363,0.0002938988618552685,0.00026498897932469845
1761140467822293200,1.570293212890625,-0.0013119635405018926,0.0006457632407546043,0.0018639632035046816
1761140467832353300,1.580353271484375,-0.0005220698658376932,-0.0012325639836490154,-0.0005560512654483318
1761140467842412300,1.590412353515625,0.00018652534345164895,-0.0002433639019727707,0.000819805427454412
1761140467852471000,1.600470947265625,0.002689364133402705,0.00017635058611631393,-0.00041403702925890684
1761140467862530300,1.6105302734375,0.0014835905749350786,0.0018556923605501652,-0.000058644101954996586
1761140467872590000,1.620590087890625,-0.0009737081709317863,0.0014847139827907085,-0.0016781124286353588
1761140467882649000,1.630649169921875,-0.00027077493723481894,0.001290405634790659,-0.00018324237316846848
1761140467892708000,1.6407080078125,-0.000585826812312007,0.0025237156078219414,0.0020157296676188707
1761140467902767000,1.65076708984375,0.0018815535586327314,0.00004824623465538025,0.0018140757456421852
1761140467912827100,1.6608271484375,0.0009172229911200702,0.0007534516043961048,0.002140046562999487
1761140467922886100,1.67088623046875,-0.0006772912456654012,0.0020609600469470024,-0.00046313187340274453
1761140467932945000,1.68094482421875,-0.0005649057566188276,-0.00014999601989984512,-0.0007611396140418947
1761140467943005200,1.691005126953125,-0.001610658597201109,0.0008667930960655212,-0.0017828242853283882
1761140467953064200,1.701064208984375,-0.0014844248071312904,-0.00008209142833948135,-0.0006579048931598663
1761140467963123200,1.711123291015625,0.0025924555957317352,-0.00007099471986293793,-0.00171261141076684
1761140467973182200,1.72118212890625,-0.0005247744265943766,0.0013466058298945427,-0.0019259306136518717
1761140467983242000,1.731241943359375,0.0010352805256843567,0.0007170685566961765,0.0008934018551371992
1761140467993301200,1.74130126953125,0.002333571668714285,0.0023756851442158222,-0.0005649452214129269
1761140468003360000,1.751360107421875,0.0017733583226799965,-0.0024647063110023737,0.0029528799932450056
1761140468013420000,1.761419921875,-0.00010976288467645645,-0.0004923692904412746,0.000648713088594377
1761140468023479300,1.771479248046875,0.00013303541345521808,-0.0015256756450980902,0.0013596536591649055
1761140468033538000,1.7815380859375,-0.0015418266411870718,-0.00017358874902129173,-0.0009626228711567819
1761140468043597300,1.791597412109375,0.0011597377015277743,0.0015482357703149319,-0.0014049357268959284
1761140468053657000,1.801656982421875,0.0029392619617283344,-0.0036872723139822483,-0.0007231663330458105
1761140468063716000,1.811716064453125,0.00019610708113759756,-0.00024390220642089844,0.00010847009252756834
1761140468073775000,1.821775146484375,0.0016326161567121744,-0.0023720343597233295,-0.0003903399920091033
1761140468083834000,1.831834228515625,0.0015440222341567278,0.0013407873921096325,-0.00011855235788971186
1761140468093894100,1.84189404296875,-0.0029769600369036198,0.0024643749929964542,0.00014163844753056765
1761140468103953200,1.851953125,-0.0012264440301805735,0.0003968128003180027,-0.0000948461820371449
1761140468114012200,1.86201220703125,0.0011389756109565496,0.0014445004053413868,0.0014806799590587616
1761140468124072200,1.872072265625,-0.0015381867997348309,0.001406214665621519,-0.00032500317320227623
1761140468134131200,1.882131103515625,-0.0012955728452652693,-0.0011775842867791653,0.000044909887947142124
1761140468144190000,1.89218994140625,0.0004776245914399624,-0.0014157476834952831,0.0010246915044263005
1761140468154249200,1.902249267578125,-0.0004472912405617535,0.0013997461646795273,0.0005064402939751744
1761140468164309000,1.91230908203125,0.0019092524889856577,-0.0015535966958850622,-0.0008505949517711997
1761140468174368300,1.9223681640625,0.0014850108418613672,0.0009479103609919548,-0.0028698034584522247
1761140468184427000,1.932427001953125,-0.0006658012862317264,0.0005255206488072872,-0.0018050179351121187
1761140468194486000,1.942486083984375,-0.002417362295091152,0.0015130210667848587,-0.00040712475311011076
1761140468204546300,1.95254638671875,-0.0012275668559595942,-0.0005376250483095646,0.00011774449376389384
1761140468214605000,1.96260498046875,0.002462509088218212,0.0006874292157590389,0.0023508050944656134
1761140468224664300,1.972664306640625,-0.0006083669140934944,-0.001024248544126749,0.0010482830693945289
1761140468234724000,1.98272412109375,-0.0009812095668166876,-0.000026628375053405762,0.0010682567954063416
1761140468244783000,1.992783203125,0.0011713220737874508,-0.002638653852045536,0.0025096009485423565
1761140468254842000,2.002842041015625,0.0015159351751208305,0.0010253232903778553,-0.0001839202013798058
1761140468264901000,2.012901123046875,0.0017623146995902061,-0.00014106323942542076,0.0008749346015974879
1761140468274961200,2.022961181640625,0.00019930553389713168,0.00290293013677001,0.0006994323339313269
1761140468285020200,2.033020263671875,-0.0002730226842686534,-0.00010257260873913765,-0.0006177323521114886
1761140468295079200,2.0430791015625,0.0021808138117194176,-0.0021406898740679026,-0.0005825786502100527
1761140468305139000,2.053138916015625,-0.0012856931425631046,-0.0010096984915435314,0.00029977806843817234
1761140468315198200,2.0631982421875,0.0009428400080651045,-0.0002019619569182396,-0.0016139695653691888
1761140468325257000,2.073257080078125,-0.00001535483170300722,-0.0001467568799853325,0.0022603352554142475
1761140468335316200,2.083316162109375,0.0013990500010550022,-0.0005574165843427181,0.0020558044780045748
1761140468345376000,2.0933759765625,-0.00037723255809396505,0.0011303764767944813,0.0002968258922919631
1761140468355435000,2.10343505859375,-0.000029690098017454147,-0.0015546225477010012,-0.001512259477749467
1761140468365494300,2.113494384765625,-0.0010759272845461965,0.0004488038830459118,-0.00008000555681064725
1761140468375553000,2.123552978515625,0.0007267664186656475,-0.0005509466864168644,0.0008425134583376348
1761140468385613300,2.13361328125,-0.0010164101840928197,-0.001596363028511405,-0.0010135758202522993
1761140468395672000,2.143672119140625,0.001835835399106145,-0.0004898197948932648,0.0017776833847165108
1761140468405731300,2.1537314453125,-0.0012697388883680105,0.0011814851313829422,-0.0021657212637364864
1761140468415791000,2.163791015625,0.0012522744946181774,0.0011109113693237305,-0.0015033932868391275
1761140468425850000,2.17385009765625,0.0009618913172744215,-0.00015301117673516273,-0.00029097578953951597
1761140468435909000,2.1839091796875,0.0006966404616832733,0.0012390227057039738,-0.0011887273285537958
1761140468445968100,2.193968017578125,0.0015754178166389465,-0.00317938718944788,-0.00044057436753064394
1761140468456028200,2.204028076171875,-0.0015631173737347126,0.0012731519527733326,-0.0007676105014979839
1761140468466087200,2.214087158203125,-0.00048792827874422073,-0.0000848923809826374,0.0010825174394994974
1761140468476146200,2.224146240234375,0.0009022418526001275,-0.000519254244863987,-0.0012320358073338866
1761140468486206000,2.2342060546875,0.0013970369473099709,0.0010730591602623463,0.0024959873408079147
1761140468496265200,2.24426513671875,-0.00013614492490887642,0.0015545585192739964,0.0006368346512317657
1761140468506324000,2.254323974609375,0.0008692387491464615,-0.0010208897292613983,0.003872873028740287
1761140468516383200,2.26438330078125,0.001524908933788538,0.001561843790113926,0.00040064362110570073
1761140468526443300,2.274443359375,-0.0015690659638494253,0.0016421708278357983,0.00156594964209944
1761140468536502000,2.284501953125,-0.0006377584650181234,0.0007721162401139736,-0.0015174583531916142
1761140468546561300,2.294561279296875,0.0000845012255012989,-0.0003317156806588173,0.0006281047826632857
1761140468556620000,2.3046201171875,-0.0015054058749228716,0.0011426103301346302,-0.0013322479790076613
1761140468566680300,2.314680419921875,-0.00021172367269173265,0.0009893556125462055,-0.00044646899914368987
1761140468576739000,2.324739013671875,-0.0015779254026710987,0.0015992196276783943,0.0013319900026544929
1761140468586798000,2.334798095703125,0.000823376583866775,0.0017127590253949165,0.0011423489777371287
1761140468596858000,2.344858154296875,0.0007181817200034857,-0.00033574458211660385,0.0013309007044881582
1761140468606917000,2.354917236328125,-0.0011228080838918686,0.0006213239394128323,-0.0015895903343334794
1761140468616976100,2.36497607421875,0.00016216706717386842,-0.001714534591883421,-0.001315284869633615
1761140468627035100,2.37503515625,-0.001267510000616312,-0.001078655943274498,-0.0009822421707212925
1761140468637095200,2.38509521484375,0.0023866132833063602,0.0006747692823410034,0.0010731855873018503
1761140468647154200,2.395154296875,0.0006260517984628677,-0.0023602573201060295,0.002927882131189108
1761140468657213200,2.405213134765625,0.0009158037137240171,0.00021422049030661583,-0.0006514065316878259
1761140468667272200,2.415272216796875,-0.0004323964240029454,0.001456857193261385,0.0003094357089139521
1761140468677332200,2.425332275390625,-0.0011964573059231043,0.00045497622340917587,-0.0002540891873650253
1761140468687391000,2.435390869140625,-0.001141462940722704,-0.0008366722613573074,-0.00046191830188035965
1761140468697450200,2.4454501953125,0.0001573608024045825,0.0034337062388658524,0.00002011377364397049
1761140468707510300,2.45551025390625,0.00009817455429583788,0.0015396224334836006,0.001603420008905232
1761140468717569000,2.465569091796875,-0.0003867871128022671,-0.0009552272967994213,-0.0007481512730009854
1761140468727628300,2.475628173828125,0.0011233222903683782,0.0003384798765182495,-0.0013472855789586902
1761140468737687000,2.48568701171875,-0.00009800336556509137,0.0011201174929738045,-0.0024642152711749077
1761140468747747000,2.4957470703125,0.00047728430945426226,-0.0018977331928908825,-0.0016208977904170752
1761140468757806000,2.50580615234375,-0.00038238411070778966,-0.00019091321155428886,-0.0002903825952671468
1761140468767865000,2.515864990234375,0.0007638630922883749,0.0009131869301199913,0.0017122160643339157
1761140468777924000,2.525924072265625,0.0009444254101254046,-0.0011968356557190418,0.002352173672989011
1761140468787984100,2.535984130859375,-0.0014821677468717098,0.0014277161099016666,-0.0002452851040288806
1761140468798043100,2.546043212890625,-0.0011689800303429365,-0.0010322458110749722,-0.0019827312789857388
1761140468808102100,2.55610205078125,0.000903541746083647,0.0012812335044145584,0.0001234516967087984
1761140468818162200,2.566162109375,-0.0006165906088426709,0.0007411446422338486,0.00034342880826443434
1761140468828221200,2.57622119140625,0.00047049656859599054,-0.001947733573615551,0.0012081705499440432
1761140468838280200,2.5862802734375,-0.00014069885946810246,-0.00042307376861572266,-0.0014560557901859283
1761140468848339200,2.596339111328125,0.0022317697294056416,0.00020449422299861908,0.00017685559578239918
1761140468858399200,2.606399169921875,-0.0014857369242236018,-0.0014290888793766499,-0.0004287472693249583
1761140468868458200,2.616458251953125,-0.0003549492103047669,0.001442289911210537,0.0013116272166371346
1761140468878517200,2.626517333984375,0.001326038152910769,0.0004896773025393486,0.00007964886026456952
1761140468888576300,2.636576171875,0.00072551763150841,0.001363702118396759,0.0008489504689350724
1761140468898636000,2.646635986328125,0.0013569530565291643,0.0018630451522767544,0.002071341499686241
1761140468908695300,2.6566953125,0.0010498816845938563,-0.0007879044860601425,0.0012295552296563983
1761140468918754000,2.666754150390625,-0.002732606139034033,0.0027764705009758472,0.00004098645877093077
1761140468928814000,2.67681396484375,0.0012202688958495855,0.0016359691508114338,0.0008214585250243545
1761140468938873300,2.686873291015625,0.0016517009353265166,0.000825835857540369,0.0017785986419767141
1761140468948932000,2.69693212890625,0.00018916174303740263,0.0024537984281778336,-0.00004501477815210819
1761140468958991400,2.706991455078125,0.0006885044276714325,0.00023112399503588676,0.0016836430877447128
1761140468969051100,2.717051025390625,-0.0005918225506320596,0.0017944686114788055,0.002044928725808859
1761140468979110100,2.727110107421875,-0.00020539783872663975,0.0012394660152494907,0.0009192105499096215
1761140468989169200,2.737169189453125,0.0013882274506613612,0.0012866226024925709,0.0008767676772549748
1761140468999228200,2.747228271484375,0.0007812930853106081,-0.00016133813187479973,0.0005257630255073309
1761140469009288200,2.7572880859375,0.00011784490197896957,0.001648693811148405,-0.0006044567562639713
1761140469019347200,2.76734716796875,-0.0012201271019876003,0.0002334900200366974,-0.0024489620700478554
1761140469029406000,2.777406005859375,0.0005633546970784664,-0.0011041024699807167,-0.0015863222070038319
1761140469039466200,2.78746630859375,-0.00002733443398028612,0.001616316381841898,0.0014299739850685
1761140469049525200,2.797525146484375,0.00006463879253715277,0.0015314044430851936,0.0007437187596224248
1761140469059584300,2.807584228515625,0.0014257803559303284,0.0015359316021203995,0.000019871513359248638
1761140469069643300,2.817643310546875,0.0002896390506066382,0.002515943720936775,-0.0004568833392113447
1761140469079703000,2.827703125,-0.0019583352841436863,0.0014378959313035011,0.0018821710254997015
1761140469089762300,2.83776220703125,0.000348417554050684,0.0020894589833915234,0.0009622150100767612
1761140469099821000,2.847821044921875,-0.0003764949506148696,0.0010830503888428211,-0.00029746012296527624
1761140469109880300,2.85788037109375,-0.0024026911705732346,0.0010887817479670048,-0.00002556771505624056
1761140469119940400,2.8679404296875,-0.00024286762345582247,-0.0010345564223825932,0.0022138843778520823
1761140469129999000,2.8779990234375,0.0007212519994936883,-0.0012118997983634472,-0.0010995720513164997
1761140469140058400,2.888058349609375,0.0012927663046866655,0.000323678832501173,0.00044612662168219686
1761140469150118100,2.8981181640625,0.000045228516682982445,0.0024284315295517445,-0.0015332821058109403
1761140469160177200,2.90817724609375,-0.0010892781428992748,0.0008659549057483673,0.0010278797708451748
1761140469170236200,2.918236083984375,-0.0011045134160667658,0.0006179525516927242,0.0002630615490488708
1761140469180295200,2.928295166015625,-0.0016081170178949833,0.0007212832570075989,0.00007371080573648214
1761140469190355000,2.93835498046875,0.0008287401869893074,-0.00023120315745472908,-0.0006958345184102654
1761140469200414200,2.948414306640625,0.001282542827539146,0.00035868724808096886,0.0006610460695810616
1761140469210473000,2.958472900390625,-0.0016709640622138977,-0.0013164016418159008,-0.0008452378679066896
1761140469220532200,2.9685322265625,0.001056379172950983,-0.002810701262205839,-0.0004913037410005927
1761140469230592300,2.97859228515625,-0.00028227875009179115,0.00048361439257860184,0.00022178486688062549
1761140469240651000,2.988651123046875,0.0008945721783675253,0.0015206490643322468,0.0020694860722869635
1761140469250710300,2.998710205078125,0.0007594313938170671,-0.0012970627285540104,-0.0018121156608685851
1761140469260770000,3.00877001953125,0.0014095089863985777,0.000961031299084425,0.00029977114172652364
1761140469270829300,3.018829345703125,0.00021563231712207198,-0.0004224814474582672,0.0013644834980368614
1761140469280888000,3.02888818359375,0.0002800808288156986,0.0010278760455548763,0.003363452386111021
1761140469290947000,3.038947021484375,-0.000821842928417027,0.0006757490336894989,0.0035130935721099377
1761140469301007400,3.04900732421875,-0.00007615785580128431,-0.00017406558617949486,-0.001251301495358348
1761140469311066000,3.059066162109375,0.0006731897010467947,0.0006836019456386566,0.0006742642726749182
1761140469321125400,3.06912548828125,0.000051075301598757505,0.00029478035867214203,0.0011890532914549112
1761140469331184000,3.07918408203125,0.00014210474910214543,0.0008880672976374626,0.0011525902664288878
1761140469341244200,3.089244140625,0.0013346682535484433,0.0017171096988022327,0.0025137318298220634
1761140469351303200,3.09930322265625,-0.0003285968559794128,0.0006581451743841171,0.0006224574754014611
1761140469361362200,3.109362060546875,0.00025596708292141557,0.00011805631220340729,0.0009305851999670267
1761140469371422200,3.119422119140625,0.0020960289984941483,0.0005222288891673088,0.00007981841918081045
1761140469381481200,3.129481201171875,0.0007713725790381432,-0.001188586000353098,0.0010739763965830207
1761140469391540200,3.139540283203125,-0.00012915366096422076,-0.0010360702872276306,-0.001282628858461976
1761140469401599200,3.14959912109375,0.0018240087665617466,-0.0006475150585174561,-0.0005212310934439301
1761140469411659300,3.1596591796875,0.00033390551107004285,-0.00005757622420787811,-0.0007808343507349491
1761140469421718000,3.169718017578125,-0.001614729524590075,0.00015813997015357018,-0.0030373309273272753
1761140469431777300,3.17977734375,0.00015366071602329612,-0.0007543563842773438,0.0006242257659323514
1761140469441836000,3.1898359375,-0.0019036312587559223,0.0010395487770438194,-0.0013928523985669017
1761140469451896000,3.19989599609375,0.00044955784687772393,0.002131554763764143,0.00032071059104055166
1761140469461955000,3.209955078125,-0.0014644558541476727,0.0011448534205555916,0.000538823485840112
1761140469472014000,3.22001416015625,-0.001017614034935832,-0.0005554794333875179,0.0015086065977811813
1761140469482074400,3.230074462890625,-0.00034010596573352814,0.00033028796315193176,0.001849757507443428
1761140469492133000,3.240133056640625,-0.0032764740753918886,0.001723544206470251,-0.0008998570265248418
1761140469502192400,3.2501923828125,-0.0003805525484494865,0.0014247377403080463,0.001551582827232778
1761140469512251100,3.260251220703125,0.0009553777636028826,-0.0010130861774086952,0.0037361690774559975
1761140469522311200,3.270311279296875,-0.00004623713903129101,0.00041809678077697754,0.0015020432183519006
1761140469532370200,3.2803701171875,-0.0006735655479133129,0.0015531615354120731,0.0012576909502968192
1761140469542429200,3.29042919921875,-0.0005968664772808552,-0.00034354208037257195,0.00260471785441041
1761140469552488200,3.30048828125,0.0014531647320836782,0.0012021427974104881,0.0017069971654564142
1761140469562548200,3.31054833984375,-0.00006030977237969637,0.000698805321007967,-0.00108932179864496
1761140469572607200,3.320607177734375,0.0011442590039223433,-0.0011985949240624905,-0.002075864700600505
1761140469582666200,3.330666259765625,-0.00018172879936173558,-0.0017703755293041468,-0.00010912027209997177
1761140469592726300,3.340726318359375,-0.00043601501965895295,-0.0024124637711793184,0.0032331948168575764
1761140469602785000,3.350784912109375,-0.0013745129108428955,0.0006818631663918495,-0.0012771347537636757
1761140469612844300,3.36084423828125,0.0009042010060511529,0.0003520650789141655,0.0033153723925352097
1761140469622903000,3.370903076171875,0.0013079361524432898,0.0004119863733649254,-0.00047057727351784706
1761140469632963000,3.380963134765625,0.0013588652946054935,0.001010068692266941,0.00006979249883443117
1761140469643022000,3.39102197265625,0.00029972620541229844,0.00045479973778128624,-0.0020570079796016216
1761140469653081000,3.4010810546875,-0.0004801635514013469,-0.002951919799670577,-0.002401521662250161
1761140469663140000,3.41114013671875,0.0008788475533947349,0.001171985175460577,0.001828909618780017
1761140469673200000,3.4212001953125,0.0015808225143700838,-0.0013331733644008636,0.0026682736352086067
1761140469683259100,3.431259033203125,-0.00045729457633569837,-0.0004101218655705452,-0.0016401885077357292
1761140469693318100,3.441318115234375,-0.0013605293352156878,0.0015545268543064594,0.00016351189697161317
1761140469703377200,3.451377197265625,0.0012810600455850363,0.00033107073977589607,0.004743083380162716
1761140469713437200,3.461437255859375,0.002410165499895811,0.0003496650606393814,-0.0021482091397047043
1761140469723496200,3.47149609375,-0.0005459433305077255,0.0011555375531315804,0.0017647735076025128
1761140469733555200,3.48155517578125,-0.0016160747036337852,-0.0015774187631905079,0.0014250450767576694
1761140469743614200,3.4916142578125,-0.0015721325762569904,0.0015427409671247005,-0.0036432165652513504
1761140469753674200,3.50167431640625,0.0008718590252101421,-0.00021673878654837608,-0.0006444687023758888
1761140469763733200,3.511733154296875,0.0004279100685380399,0.0015478716231882572,0.003399807959794998
1761140469773792300,3.521792236328125,0.0003726067952811718,-0.0007857885211706161,0.0012363798450678587
1761140469783852000,3.53185205078125,0.00026474875630810857,0.0004698922857642174,0.0015463718445971608
1761140469793911300,3.541911376953125,0.00017987098544836044,0.0016493895091116428,-0.0027502053417265415
1761140469803970000,3.551969970703125,-0.0005671457038260996,0.0031556738540530205,0.001672239974141121
1761140469814029300,3.562029296875,0.0008118997211568058,0.0016155126504600048,0.0009158389875665307
1761140469824089300,3.57208935546875,-0.0025231768377125263,0.0005089691840112209,-0.00043012259993702173
1761140469834148000,3.582148193359375,0.0019320060964673758,0.0014028949663043022,-0.001376916072331369
1761140469844206800,3.592206787109375,0.0004502232768572867,-0.0002274923026561737,0.0005645284545607865
1761140469854265900,3.602265869140625,-0.0012409830233082175,0.0011465796269476414,-0.0019843685440719128
1761140469864326000,3.612325927734375,-0.0011696101864799857,-0.0003855372779071331,-0.0006794194923713803
1761140469874385000,3.622385009765625,0.0009188568219542503,0.0010859780013561249,0.0023261080496013165
1761140469884444000,3.63244384765625,-0.001976265572011471,0.002105968538671732,0.0021178487222641706
1761140469894504000,3.64250390625,-0.0010238125687465072,0.00040568457916378975,-0.002392921131104231
1761140469904563000,3.65256298828125,-0.0003265970153734088,-0.00042841769754886627,-0.00046186300460249186
1761140469914622000,3.6626220703125,0.0010482543148100376,-0.002425526501610875,0.002472547348588705
1761140469924681000,3.672680908203125,-0.0014924013521522284,-0.0006843516603112221,-0.00003721576649695635
1761140469934741000,3.682740966796875,-0.0002033498603850603,0.0007078293710947037,-0.0010250923223793507
1761140469944800000,3.692800048828125,-0.0005429028533399105,0.0016170325689017773,-0.0000309342285618186
1761140469954859000,3.70285888671875,0.000011495896615087986,0.0016686832532286644,-0.0002024499699473381
1761140469964918000,3.71291796875,-0.0002700002514757216,0.0015706787817180157,0.00022285687737166882
1761140469974978000,3.72297802734375,0.0010220390977337956,-0.0006016339175403118,-0.00003442494198679924
1761140469985036800,3.733036865234375,-0.0015758746303617954,0.0022061369381844997,-0.002541524823755026
1761140469995096000,3.743095947265625,-0.0016764192841947079,-0.0006775474175810814,-0.00024187075905501842
1761140470005154800,3.75315478515625,0.0012312200851738453,-0.0006762156262993813,-0.0009076609276235104
1761140470015214800,3.76321484375,0.0011469048913568258,0.00042127398774027824,0.0004451323766261339
1761140470025274000,3.773274169921875,-0.0025881784968078136,-0.0014509283937513828,0.0009817592799663544
1761140470035332900,3.783332763671875,-0.0011427332647144794,-0.001272871159017086,-0.0005743291694670916
1761140470045393000,3.793392822265625,-0.00019278371473774314,-0.00014795176684856415,0.002330114133656025
1761140470055452000,3.803451904296875,-0.00023003778187558055,0.00013220636174082756,-0.0020426814444363117
1761140470065511000,3.813510986328125,-0.0008681311155669391,0.0002525812014937401,0.0025163840036839247
1761140470075570000,3.82356982421875,0.0009217635961249471,-0.00029496848583221436,-0.0017564683221280575
1761140470085630000,3.8336298828125,0.0021849009208381176,0.0006374041549861431,0.0024353470653295517
1761140470095688700,3.843688720703125,-0.00041223986772820354,-0.00033141812309622765,0.0006555049330927432
1761140470105748000,3.853748046875,0.0017393279122188687,-0.001318119466304779,0.0032424996607005596
1761140470115806700,3.863806640625,-0.00126601941883564,0.0006854012608528137,-0.00010092603042721748
1761140470125867000,3.873866943359375,-0.0005094153457321227,-0.00013405317440629005,-0.00054886972066015
1761140470135926000,3.883926025390625,-0.0009309501037932932,-0.0002664136700332165,-0.0007538516074419022
1761140470145984800,3.89398486328125,0.00024297134950757027,0.0009373347274959087,-0.0003154953010380268
1761140470156044000,3.9040439453125,-0.0013919046614319086,-0.00020336173474788666,0.0019927520770579576
1761140470166103800,3.914103759765625,0.002319210208952427,-0.001312035834416747,0.0030396408401429653
1761140470176163000,3.9241630859375,-0.0009113207925111055,-0.0007219873368740082,-0.003852022346109152
1761140470186221800,3.934221923828125,-0.00010970921721309423,0.002704701852053404,0.0014439396327361465
1761140470196281900,3.94428173828125,0.00007817416917532682,-0.00026606209576129913,0.0018700058571994305
1761140470206341000,3.954341064453125,-0.0027602228801697493,-0.002425619401037693,-0.0001753019168972969
1761140470216400000,3.96439990234375,-0.0013839842285960913,0.001648415345698595,0.00036408548476174474
1761140470226459100,3.974459228515625,0.0007356256246566772,-0.000038164202123880386,-0.000462027033790946
1761140470236519000,3.984518798828125,-0.0010933855082839727,0.00007567228749394417,-0.0033090636134147644
1761140470246578000,3.994577880859375,0.00024298863718286157,0.0034395107068121433,-0.00015960948076099157
1761140470256637000,4.004636962890625,0.001560613396577537,0.00008788425475358963,-0.00047114997869357467
1761140470266696000,4.014696044921875,-0.001051681349053979,0.0009768474847078323,-0.00037953717401251197
1761140470276755700,4.024755615234375,-0.0015828220639377832,0.0018492662347853184,-0.001200690632686019
1761140470286815000,4.03481494140625,-0.0009021180449053645,0.002182427793741226,0.0005021347315050662
1761140470296873700,4.044873779296875,0.001109595992602408,0.0002661696635186672,0.0013811761746183038
1761140470306933000,4.05493310546875,-0.0006052133394405246,-0.0011096191592514515,0.0009444177849218249
1761140470316993000,4.064992919921875,0.0004124577681068331,-0.0005521588027477264,-0.0005266209482215345
1761140470327051800,4.0750517578125,-0.0012418979313224554,0.0011013979092240334,0.0007612837944179773
1761140470337111000,4.085111083984375,0.001173931872472167,0.0007943660020828247,0.00009671819861978292
1761140470347170800,4.0951708984375,0.001251429901458323,-0.00025678379461169243,-0.0012636244064196944
1761140470357229800,4.105229736328125,-0.0017935113282874227,-0.0012804972939193249,-0.002445805352181196
1761140470367288800,4.115288818359375,-0.00237541226670146,0.00043244799599051476,-0.002466844394803047
1761140470377347800,4.125347900390625,0.0020871185697615147,-0.0015839433763176203,0.00199817749671638
1761140470387408100,4.135408203125,0.0006189177511259913,0.001448598224669695,0.0034719707909971476
1761140470397467000,4.145466796875,0.0000615227036178112,-0.0013645426370203495,0.0009095819550566375
1761140470407526100,4.155526123046875,-0.0006897550192661583,0.000584091991186142,-0.0007615516660735011
1761140470417585000,4.1655849609375,-0.0012570382095873356,0.001260136254131794,-0.0007509808638133109
1761140470427645000,4.17564501953125,0.002639965619891882,0.00023881392553448677,0.00016461388440802693
1761140470437704000,4.185703857421875,-0.00012282992247492075,-0.00035371631383895874,-0.00043193460442125797
1761140470447763000,4.195762939453125,0.001298765535466373,-0.0005249576643109322,-0.0027962890453636646
1761140470457822000,4.205822021484375,-0.0006756919319741428,-0.0010393708944320679,-0.0011627832427620888
1761140470467882000,4.215882080078125,-0.0007433362188749015,-0.0010191304609179497,-0.00016436405712738633
1761140470477941000,4.22594091796875,0.0005393965402618051,0.0013005277141928673,-0.00008524965960532427
1761140470488000000,4.236,-0.00009257160127162933,-0.0014438596554100513,0.0009427305194549263
1761140470498060000,4.24606005859375,-0.00180330709554255,-0.0012758933007717133,-0.0012726386776193976
1761140470508118800,4.256118896484375,0.00039539876161143184,0.0000018910504877567291,0.001365488744340837
1761140470518178000,4.266177978515625,-0.0008440919336862862,-0.0010814080014824867,-0.001667871605604887
1761140470528236800,4.27623681640625,-0.001227054512128234,0.0014991946518421173,0.0002802307717502117
1761140470538296800,4.286296875,0.0016898894682526588,-0.000057656317949295044,0.0024100840091705322
1761140470548355800,4.29635595703125,-0.0028579907957464457,-0.0005103936418890953,-0.00016226328443735838
1761140470558414800,4.306414794921875,-0.00024972885148599744,-0.0012984252534806728,-0.0002428565640002489
1761140470568473900,4.316473876953125,0.0011100812116637826,0.0005689831450581551,0.000976604875177145
1761140470578534000,4.326533935546875,0.00113000744022429,0.000527441967278719,-0.00028658879455178976
1761140470588593000,4.336593017578125,-0.0003677543718367815,0.00022730370983481407,-0.0015393397770822048
1761140470598652000,4.34665185546875,-0.001047699712216854,-0.00102546950802207,-0.00047566357534378767
1761140470608711000,4.3567109375,0.0005310220876708627,0.0018179873004555702,-0.0009904527105391026
1761140470618771000,4.36677099609375,-0.0012275041081011295,-0.0016033761203289032,0.00045488454634323716
1761140470628830000,4.376829833984375,-0.0008107192697934806,0.0005987915210425854,-0.001437291270121932
1761140470638889000,4.386888916015625,-0.00036685948725789785,-0.0024800687097012997,-0.0016274206573143601
1761140470648948000,4.396947998046875,0.0012563372729346156,0.0010395650751888752,-0.00047666882164776325
1761140470659008000,4.407008056640625,-0.0003064645570702851,0.0002851993776857853,0.0005556916585192084
1761140470669067000,4.41706689453125,0.0006109944079071283,-0.0008402527309954166,-0.0007175656501203775
1761140470679126000,4.4271259765625,-0.0004318681894801557,-0.0010260599665343761,0.0006685573607683182
1761140470689185800,4.437185791015625,0.0005170161603018641,0.0009425482712686062,0.0019197104265913367
1761140470699245000,4.4472451171875,0.002263569738715887,0.0014311382547020912,-0.001988308969885111
1761140470709303800,4.4573037109375,-0.0009668447310104966,-0.0026560151018202305,0.0009941650787368417
1761140470719363000,4.467363037109375,0.0001921136281453073,-0.002397294621914625,0.001177916070446372
1761140470729422800,4.4774228515625,-0.00004730455111712217,0.0006163385696709156,-0.0011765847448259592
1761140470739481900,4.48748193359375,0.0016487702960148454,0.0004031378775835037,-0.0000067836372181773186
1761140470749540900,4.497540771484375,-0.0007374220294877887,-0.0005249739624559879,0.0011559524573385715
1761140470759599900,4.507599853515625,-0.0018162736669182777,-0.0006521986797451973,0.0006511820247396827
1761140470769660000,4.517659912109375,0.00025033921701833606,0.0005241194739937782,-0.0010417894227430224
1761140470779719000,4.527718994140625,0.000013093173038214445,-0.0007763560861349106,0.004280718043446541
1761140470789778000,4.53777783203125,0.0009878100827336311,-0.00039845332503318787,-0.0005848770379088819
1761140470799837000,4.5478369140625,-0.001701349625363946,0.0011766883544623852,0.0008415253250859678
1761140470809897000,4.55789697265625,-0.0005444723647087812,-0.0009591667912900448,-0.002163053024560213
1761140470819955700,4.567955810546875,-0.0003011029912158847,0.0010247109457850456,0.0017918747616931796
1761140470830015000,4.578014892578125,-0.0003442462766543031,0.0005280314944684505,0.0012893362436443567
1761140470840073700,4.58807373046875,-0.0006998620228841901,0.0012446925975382328,0.0016634033527225256
1761140470850134800,4.598134765625,0.0024615763686597347,-0.002533001359552145,-0.00037737691309303045
1761140470860193800,4.60819384765625,-0.001064601237885654,0.00030812714248895645,0.0009723516996018589
1761140470870252800,4.618252685546875,-0.0007002807687968016,-0.001379517838358879,-0.0009251505834981799
1761140470880312600,4.6283125,-0.001018019043840468,-0.0015899259597063065,-0.0019149710424244404
1761140470890371800,4.638371826171875,0.0012944036861881614,0.0015571312978863716,-0.0007892528083175421
1761140470900430600,4.6484306640625,0.00313190883025527,0.0006228657439351082,-0.00036902609281241894
1761140470910489900,4.65848974609375,-0.0009403307340107858,0.0008020964451134205,-0.0004073756281286478
1761140470920550000,4.6685498046875,0.0011007786961272359,-0.0009088865481317043,-0.0015460634604096413
1761140470930608600,4.678608642578125,-0.001555724535137415,0.0017452198080718517,-0.0012472567614167929
1761140470940668000,4.68866796875,-0.00022132688900455832,-0.000010402873158454895,-0.0019634491764009
1761140470950726700,4.6987265625,0.000621829938609153,-0.0000460892915725708,-0.0000030963565222918987
1761140470960787000,4.708786865234375,0.00036428775638341904,-0.0012301281094551086,0.00042316928738728166
1761140470970845700,4.718845703125,-0.0005353281158022583,-0.000308407936245203,0.002072731265798211
1761140470980904700,4.72890478515625,-0.0004086320986971259,0.001488471869379282,-0.0016659409739077091
1761140470990963700,4.738963623046875,0.0014843428507447243,0.0013012513518333435,0.0012451603543013334
1761140471001023700,4.749023681640625,-0.00004721537698060274,0.001123500056564808,0.0009278720244765282
1761140471011082800,4.759082763671875,-0.0009204657981172204,0.0010473337024450302,0.0002602175809442997
1761140471021141800,4.769141845703125,0.00000375241506844759,0.0009630834683775902,-0.0037486122455447912
1761140471031200800,4.77920068359375,-0.0018495413241907954,0.00008131098002195358,0.000822703936137259
1761140471041260800,4.7892607421875,-0.0005135908722877502,-0.0005175112746655941,-0.0019445896614342928
1761140471051319800,4.79931982421875,0.0030337395146489143,0.0009176661260426044,-0.0002614717814140022
1761140471061378800,4.80937890625,-0.0011983802542090416,0.00007716100662946701,-0.001159451436251402
1761140471071437800,4.819437744140625,-0.001461234176531434,0.0010718517005443573,0.00033964187605306506
1761140471081497600,4.82949755859375,-0.0024168069940060377,0.00012517999857664108,0.0015171356499195099
1761140471091556900,4.839556884765625,0.001258621457964182,0.0014690114185214043,0.0001549287117086351
1761140471101615600,4.84961572265625,-0.0004465270903892815,0.0019237021915614605,0.001405455986969173
1761140471111675600,4.859675537109375,0.0025127774570137262,-0.002093409886583686,0.0032717993017286062
1761140471121735000,4.86973486328125,-0.00039897934766486287,-0.0007963920943439007,-0.0023936768993735313
1761140471131793700,4.879793701171875,-0.00032547611044719815,-0.0002975817769765854,0.0014122466091066599
1761140471141853000,4.88985302734375,0.0013695645611733198,-0.0007510017603635788,0.0014449050650000572
1761140471151912700,4.89991259765625,0.00173867866396904,0.0006005521863698959,-0.00015325791900977492
1761140471161971700,4.9099716796875,-0.0010518464259803295,0.0005780085921287537,0.00022266083396971226
1761140471172030700,4.92003076171875,-0.0014915342908352613,0.001806524582207203,-0.0028266585431993008
1761140471182089700,4.93008984375,-0.00021252757869660854,-0.0011278288438916206,0.0012154197320342064
1761140471192149800,4.940149658203125,0.0007728420896455646,-0.00013446947559714317,0.001169613329693675
1761140471202208800,4.950208740234375,0.0014284644275903702,-0.0003088833764195442,0.0017614451935514808
1761140471212267800,4.960267822265625,0.0008079479448497295,0.001976641360670328,0.0008738136384636164
1761140471222326800,4.970326904296875,0.0004402274498715997,0.00256041856482625,0.0014244947815313935
1761140471232386800,4.98038671875,0.0004199874238111079,0.0018802471458911896,0.0020279670134186745
1761140471242445800,4.99044580078125,-0.0016666511073708534,0.001437127124518156,0.0012174686416983604
1761140471252504800,5.0005048828125,0.0013110290747135878,0.0007979683578014374,0.00033329910365864635
1761140471262563600,5.0105634765625,0.001635206863284111,0.0003754179924726486,-0.001959196524694562
1761140471272623900,5.020623779296875,-0.0006077073630876839,-0.0011662859469652176,0.001087193377315998
1761140471282682600,5.0306826171875,-0.00020243402104824781,0.0013662585988640785,-0.0033714035525918007
1761140471292742000,5.040741943359375,-0.0008122979197651148,-0.00019009271636605263,0.001357038738206029
1761140471302800600,5.050800537109375,0.0022243065759539604,0.0001677023246884346,0.003664827672764659
1761140471312860700,5.060860595703125,0.0006714174523949623,-0.0006650681607425213,0.0004650396585930139
1761140471322920000,5.070919921875,0.0006347392918542027,-0.00010107643902301788,-0.0025112463627010584
1761140471332978700,5.080978759765625,0.0001857303432188928,-0.00015567149966955185,0.0014731090050190687
1761140471343038700,5.091038818359375,-0.003294040448963642,-0.0002112099900841713,0.0012799588730558753
1761140471353097700,5.10109765625,0.0015172262210398912,-0.0005728672258555889,-0.0006359192193485796
1761140471363156700,5.11115673828125,-0.0012218430638313293,-0.00025844573974609375,-0.0017712106928229332
1761140471373215700,5.1212158203125,0.00023810187121853232,-0.0010717748664319515,0.0018075450789183378
1761140471383275800,5.13127587890625,0.0011865971609950066,-0.0027240407653152943,-0.0015624365769326687
1761140471393334800,5.141334716796875,0.0009354610228911042,-0.00010721897706389427,0.0012218982446938753
1761140471403393800,5.151393798828125,0.0010495102033019066,-0.0021496417466551065,0.002958030439913273
1761140471413452800,5.161452880859375,0.003344089724123478,0.00022936007007956505,0.0019063480431213975
1761140471423512600,5.1715126953125,0.0014140576822683215,0.000530702993273735,-0.00035988743184134364
1761140471433571800,5.18157177734375,-0.0012038296554237604,0.0014870441518723965,0.001754928845912218
1761140471443630600,5.191630615234375,-0.0006550510879606009,0.0014377939514815807,-0.0014177595730870962
1761140471453689900,5.20168994140625,-0.001167976064607501,0.0013294033706188202,0.000695192429702729
1761140471463749600,5.21174951171875,0.0009279210353270173,0.0009464295580983162,0.0003056140849366784
1761140471473808600,5.22180859375,0.00174497882835567,0.0016753366217017174,-0.0013146530836820602
1761140471483867600,5.23186767578125,-0.002507544122636318,0.0006352602504193783,0.0032688677310943604
1761140471493926700,5.2419267578125,-0.00005823490209877491,0.0008515091612935066,-0.0034228572621941566
1761140471503987000,5.251987060546875,0.00005513033829629421,0.0017567682079970837,0.0006714374758303165
1761140471514045700,5.262045654296875,0.0012583464849740267,-0.0009292960166931152,0.00023840746143832803
1761140471524105000,5.27210498046875,0.00005987548502162099,-0.00021674670279026031,0.0018232944421470165
1761140471534163700,5.282163818359375,0.0012785380240529776,0.0007672915235161781,0.0024600562173873186
1761140471544223700,5.2922236328125,-0.00003617396578192711,0.0012755142524838448,0.0027174195274710655
1761140471554282800,5.30228271484375,0.0010634452337399125,0.00002409517765045166,-0.00012710277223959565
1761140471564341800,5.312341796875,0.00036026525776833296,-0.00255651050247252,-0.0021482380107045174
1761140471574400800,5.32240087890625,0.0022572348825633526,0.0006350218318402767,0.00019374582916498184
1761140471584460800,5.332460693359375,-0.0008262781193479896,0.0014152317307889462,-0.0011639895383268595
1761140471594519800,5.342519775390625,0.00038679171120747924,0.00023598410189151764,-0.000014036661013960838
1761140471604578800,5.352578857421875,0.000015267636626958847,-0.0006377557292580605,-0.0005373292951844633
1761140471614638800,5.362638916015625,0.0013167544966563582,0.00011991383507847786,0.0010973189491778612
1761140471624697600,5.372697509765625,0.0017257947474718094,0.002466134261339903,0.0019843485206365585
1761140471634756900,5.3827568359375,0.0006512091495096684,0.0010365494526922703,0.0019241611007601023
1761140471644815600,5.392815673828125,-0.00033984112087637186,0.0003140680491924286,0.0009906853083521128
1761140471654875600,5.402875732421875,-0.0018679628847166896,-0.0009900820441544056,-0.0009672706946730614
1761140471664935000,5.412934814453125,-0.00023876514751464128,0.0025048074312508106,0.0005826496053487062
1761140471674993700,5.42299365234375,-0.00045261706691235304,-0.0023397488985210657,0.0012060955632477999
1761140471685053000,5.433052978515625,0.00012666272232308984,0.00003244588151574135,0.0020202903542667627
1761140471695112700,5.44311279296875,-0.0004978484939783812,0.002163507044315338,-0.0018833712674677372
1761140471705171700,5.453171630859375,-0.0006453008390963078,0.000691460445523262,-0.0005132489022798836
1761140471715230700,5.463230712890625,-0.003068244783207774,0.00045976554974913597,-0.001352943480014801
1761140471725289700,5.473289794921875,-0.0006322928238660097,-0.0008315364830195904,-0.0015294166514649987
1761140471735349800,5.483349853515625,-0.00037130306009203196,-0.0015250237192958593,-0.001185868983156979
1761140471745408800,5.49340869140625,-0.000027268542908132076,0.00028138933703303337,-0.002182013588026166
1761140471755467800,5.5034677734375,-0.0014810881111770868,-0.0007830760441720486,0.0007621109834872186
1761140471765526800,5.51352685546875,0.0014526337618008256,0.0012921742163598537,0.0008117659599520266
1761140471775586800,5.5235869140625,0.0022491852287203074,-0.0005888165906071663,0.002045342233031988
1761140471785645800,5.533645751953125,0.00023041799431666732,-0.0008607520721852779,-0.001322830212302506
1761140471795704800,5.543704833984375,-0.0014287314843386412,-1.816079020500183e-8,0.0001480336650274694
1761140471805763800,5.553763916015625,0.0002317889011465013,0.0020823143422603607,0.001856762683019042
1761140471815824000,5.563823974609375,-0.0006561089539900422,0.0026743346825242043,0.0010764565085992217
1761140471825882600,5.573882568359375,-0.0005041768308728933,0.0010526669211685658,0.0004406779771670699
1761140471835942000,5.58394189453125,0.0005187433562241495,0.00003054598346352577,-0.00028263661079108715
1761140471846000000,5.594000244140625,-0.0005887928418815136,-0.002145556965842843,0.003294628579169512
1761140471856060000,5.604059814453125,-0.0007887962274253368,0.002250789199024439,0.0007318684365600348
1761140471866119200,5.614119140625,0.0006364969303831458,-0.0009699380025267601,-0.00037377007538452744
1761140471876178000,5.624177978515625,-0.00041065795812755823,0.0007387460209429264,0.0003250433364883065
1761140471886238200,5.63423828125,0.0007033916190266609,0.000895604956895113,-0.00007399864261969924
1761140471896297200,5.644297119140625,0.0018474855460226536,0.0006205001845955849,-0.0000657428172416985
1761140471906356200,5.654356201171875,-0.0024111447855830193,0.0015003564767539501,-0.0017352801514789462
1761140471916415200,5.664415283203125,0.0015955811832100153,-0.0007468191906809807,-0.0004258038243278861
1761140471926475000,5.67447509765625,-0.00020410970319062471,0.0022305729798972607,-0.0016445843502879143
1761140471936534300,5.6845341796875,0.0008118862169794738,0.000879551749676466,0.0008910112082958221
1761140471946593000,5.694593017578125,0.0015642533544450998,0.00012187007814645767,-0.0023595828097313643
1761140471956652300,5.70465234375,0.0016079291235655546,0.0010667596943676472,-0.0012125594075769186
1761140471966712300,5.71471240234375,-0.00017743429634720087,-0.0017702309414744377,-0.000071649847086519
1761140471976771000,5.72477099609375,0.000586892943829298,0.0016505992971360683,0.001291089691221714
1761140471986830300,5.734830322265625,0.00020316365407779813,-0.000009772833436727524,-0.0005649614031426609
1761140471996889000,5.74488916015625,-0.0006487815408036113,0.0018829358741641045,0.001410038908943534
1761140472006949000,5.75494921875,-0.0001415354199707508,-0.0011348393745720387,-0.001015269197523594
1761140472017008000,5.765008056640625,0.000574854901060462,0.00025186873972415924,0.0035256866831332445
1761140472027067100,5.775067138671875,0.0020476982463151217,-0.0005823913961648941,-0.0018283948302268982
1761140472037126100,5.785126220703125,0.0002796255866996944,-0.0014116999227553606,0.00070666812825948
1761140472047186200,5.795186279296875,0.0005823263199999928,0.002647292334586382,0.002787801204249263
1761140472057245000,5.805244873046875,0.0008345276582986116,0.0007908022962510586,-0.0005810974980704486
1761140472067304200,5.81530419921875,-0.00012641842477023602,-0.0010979571379721165,0.000057646597269922495
1761140472077363000,5.825363037109375,-0.0006739642703905702,-0.0003682509995996952,0.0003814870142377913
1761140472087423000,5.835423095703125,-0.0005227774381637573,-0.00040134135633707047,0.001589582534506917
1761140472097482200,5.845482177734375,-0.0015536871505901217,-0.00011451868340373039,-0.0005968727055005729
1761140472107541000,5.855541015625,-0.002640222664922476,0.0004971390590071678,-0.002605716697871685
1761140472117600300,5.865600341796875,-0.0024388879537582397,0.0007322961464524269,0.0012241752119734883
1761140472127660000,5.875659912109375,-0.001005469704978168,-0.00045843515545129776,-0.0025276627857238054
1761140472137719000,5.885718994140625,0.0009807158494368196,0.0007825982756912708,0.0004100701189599931
1761140472147778000,5.895778076171875,0.0007775234989821911,-0.0013969328720122576,-0.0017071424517780542
1761140472157837000,5.905837158203125,-0.001472315052524209,-0.0014270264655351639,0.00137573282700032
1761140472167897300,5.9158974609375,0.0011201571905985475,-0.0006909016519784927,0.001039238297380507
1761140472177956000,5.9259560546875,-0.0007307396735996008,0.0016641318798065186,-0.00014187354827299714
1761140472188015000,5.93601513671875,0.0006177572067826986,-0.0007639117538928986,0.0005556340329349041
1761140472198075100,5.9460751953125,0.002189821097999811,-0.0013751073274761438,0.00043312861816957593
1761140472208134100,5.956134033203125,-0.0013485351810231805,0.0011705122888088226,0.00022691156482324004
1761140472218193200,5.966193115234375,-0.0012595854932442307,-0.0006878417916595936,-0.0014074703212827444
1761140472228252200,5.976252197265625,-0.0005285685183480382,0.0008896565996110439,-0.0006572682177647948
1761140472238312200,5.986312255859375,0.0006544076604768634,0.001381009817123413,0.0005944175063632429
1761140472248371200,5.99637109375,-0.0008694123243913054,0.00041464390233159065,0.0005079583497717977
1761140472258430200,6.00643017578125,-0.0008036323124542832,0.0013233143836259842,-0.0005573060479946434
1761140472268489200,6.0164892578125,-0.0013385345228016376,0.0016535157337784767,-0.00013644463615491986
1761140472278549200,6.02654931640625,0.0003240769146941602,-0.0005912627093493938,-0.0006072915275581181
1761140472288608000,6.03660791015625,0.0011892870534211397,-0.00007799966260790825,-0.00385114923119545
1761140472298667300,6.046667236328125,0.0008028624579310417,0.0015206960961222649,0.0008764943340793252
1761140472308726000,6.05672607421875,-0.0008007872384041548,0.0025611924938857555,0.002502874471247196
1761140472318786000,6.0667861328125,-0.00015843287110328674,-0.0014380763750523329,0.0013430677354335785
1761140472328845000,6.076844970703125,-0.000005690613761544228,0.00032607652246952057,0.0015808744356036186
1761140472338904000,6.086904052734375,0.0010079084895551205,0.0008962592110037804,-0.001392544829286635
1761140472348963000,6.096963134765625,0.0008218164439313114,-0.00044250115752220154,-0.0003035641275346279
1761140472359023000,6.107023193359375,0.0016244931612163782,-0.00015514623373746872,0.0013880757614970207
1761140472369082000,6.11708203125,0.0012372320052236319,-0.0006920085288584232,0.00012190645793452859
1761140472379141000,6.12714111328125,0.0001368139055557549,0.0011224034242331982,0.0005080647533759475
1761140472389200100,6.1372001953125,0.0003554472350515425,0.00045281508937478065,-0.00016424001660197973
1761140472399260200,6.14726025390625,0.0004625063156709075,-0.000426294282078743,0.0018150212708860636
1761140472409319200,6.157319091796875,-0.00018549745436757803,-0.0024748612195253372,0.00410888995975256
1761140472419378000,6.1673779296875,-0.0001804374624043703,0.0026748934760689735,-0.00042354397010058165
1761140472429437200,6.177437255859375,0.0024640208575874567,0.000171734020113945,-0.0017820396460592747
1761140472439497200,6.187497314453125,0.0009769117459654808,-0.002301011001691222,-0.0003250242443755269
1761140472449556200,6.19755615234375,0.0005643970798701048,0.0012321779504418373,0.0008606772171333432
1761140472459615200,6.207615234375,0.0013984991237521172,-0.0010283133015036583,0.00030647340463474393
1761140472469674000,6.217674072265625,0.00029162323335185647,0.0007984992116689682,-0.0008485587313771248
1761140472479734300,6.227734375,-0.002620010869577527,0.0009670774452388287,-0.002788937883451581
1761140472489793000,6.23779296875,0.0005542212165892124,0.0013269362971186638,0.0028466414660215378
1761140472499852300,6.247852294921875,0.00007032486610114574,-0.0003884057514369488,-0.00047059188364073634
1761140472509911000,6.2579111328125,-0.0001327657955698669,-0.0007730540819466114,-0.00031852914253249764
1761140472519971000,6.26797119140625,0.0024515658151358366,-0.0003197840414941311,-0.00017525098519399762
1761140472530030300,6.2780302734375,-0.00251460331492126,0.0006682709790766239,0.0002607465139590204
1761140472540089000,6.288089111328125,0.0006218013586476445,0.0005188677459955215,0.0000181325594894588
1761140472550148400,6.2981484375,-0.0006333169876597822,0.0015149647369980812,-0.0009942036122083664
1761140472560208100,6.3082080078125,-0.00005487835733219981,-0.00037561357021331787,0.0007064910605549812
1761140472570267100,6.31826708984375,0.0008523066062480211,0.0022526313550770283,0.00017142260912805796
1761140472580326100,6.328326171875,0.00018731533782556653,-0.0017612851224839687,-0.0013279370032250881
1761140472590385200,6.33838525390625,0.0007315890397876501,0.0005925605073571205,-0.0003632420557551086
1761140472600445000,6.34844482421875,0.0005579509306699038,-0.0012085353955626488,0.0016306666657328606
1761140472610504200,6.358504150390625,-0.0006410754285752773,0.00017329491674900055,-0.001602793694473803
1761140472620563000,6.36856298828125,0.002150183543562889,0.0013576028868556023,0.0000028260983526706696
1761140472630622200,6.378622314453125,0.00035951315658167005,-0.00013507110998034477,0.0008380182553082705
1761140472640682200,6.38868212890625,-0.0006005563773214817,0.0026844171807169914,-0.0009620123892091215
1761140472650741000,6.398740966796875,0.0016563773388043046,-0.0020849439315497875,0.0018431805074214935
1761140472660800300,6.40880029296875,0.00016500713536515832,0.0000413237139582634,-0.0013129317667335272
1761140472670860000,6.418860107421875,0.00006795499939471483,0.0001357519067823887,-0.000008321716450154781
1761140472680919300,6.428919189453125,0.00036383222322911024,0.002194907981902361,0.001737380400300026
1761140472690978000,6.43897802734375,0.00091833173064515,-0.0006613330915570259,0.0022370966617017984
1761140472701037000,6.449037109375,-0.00030698860064148903,-0.00045999791473150253,0.0008698297315277159
1761140472711097300,6.459097412109375,-0.0013999317307025194,0.0002390383742749691,0.0009257138590328395
1761140472721156000,6.469156005859375,-0.0012071190867573023,-0.0015218434855341911,-0.002628008369356394
1761140472731215400,6.47921533203125,-0.0016474949661642313,0.0020671458914875984,0.00005014322232455015
1761140472741274000,6.489274169921875,0.0024817362427711487,0.0011294465512037277,0.0008158020209521055
1761140472751334100,6.499334228515625,0.00021631462732329965,0.0007999101653695107,0.0004472233122214675
1761140472761393200,6.50939306640625,0.0002749041887000203,0.0023527992889285088,-0.0009717089124023914
1761140472771452200,6.5194521484375,-0.0014250039821490645,0.00008118664845824242,-0.0005288973334245384
1761140472781511200,6.52951123046875,-0.0012500343145802617,-0.0005028448067605495,-0.0015464911703020334
1761140472791571200,6.5395712890625,0.000162878364790231,-0.002131194341927767,0.0027945535257458687
1761140472801630000,6.5496298828125,0.001677418127655983,0.0009817746467888355,-0.0007072368171066046
1761140472811689200,6.559689208984375,0.0007066814578138292,0.0005024541169404984,-0.00039936642860993743
1761140472821748000,6.569748046875,0.0007277204422280192,0.0008886121213436127,0.0011447343276813626
1761140472831808000,6.57980810546875,0.0000967012601904571,-0.0029216601978987455,-0.00014084111899137497
1761140472841867300,6.5898671875,0.0003923121257685125,-0.001356254331767559,-0.00000928092049434781
1761140472851925500,6.599925537109375,0.0014577158726751804,0.00044103898108005524,0.001551145687699318
1761140472861984800,6.60998486328125,-0.0015428676269948483,0.0009457082487642765,-0.001491249306127429
1761140472872044500,6.62004443359375,0.00021763378754258156,-0.00041528791189193726,0.0023296240251511335
1761140472882103800,6.630103759765625,0.00043627931154333055,0.0016422704793512821,0.0024100514128804207
1761140472892162600,6.64016259765625,-0.001196195837110281,0.0004320968873798847,0.0010895229643210769
1761140472902221600,6.6502216796875,-0.0010441294871270657,0.0018118806183338165,-0.0022609999869018793
1761140472912281900,6.66028173828125,0.0018090078374370933,0.0007690438069403172,-0.0012446544133126736
1761140472922340600,6.670340576171875,-0.0002506808959878981,-0.000500751193612814,-0.0005953757208772004
1761140472932399900,6.68039990234375,0.0007583634578622878,-0.0004611266776919365,0.0020729913376271725
1761140472942458600,6.690458740234375,0.00031574605964124203,0.00102198775857687,-0.0026863436214625835
1761140472952518700,6.7005185546875,-0.0015456449473276734,0.0012553255073726177,-0.0006254010368138552
1761140472962577700,6.71057763671875,-0.0013142161769792438,0.003245505504310131,-0.0012837345711886883
1761140472972636700,6.72063671875,0.003428139491006732,-0.0005018515512347221,-0.0006726503488607705
1761140472982695700,6.73069580078125,0.0017349016852676868,0.000281650573015213,-0.0002835625200532377
1761140472992755700,6.740755615234375,-0.001286674290895462,0.0022874963469803333,0.0010775488335639238
1761140473002814700,6.750814697265625,0.00047260988503694534,0.0002832016907632351,0.000018143386114388704
1761140473012873700,6.760873779296875,-0.0015651918947696686,0.0011261878535151482,0.0011331847636029124
1761140473022932700,6.7709326171875,0.0018042393494397402,0.0009703929536044598,-0.0002436695504002273
1761140473032992500,6.780992431640625,0.000587130372878164,0.0014726589433848858,0.0015007457695901394
1761140473043051800,6.7910517578125,0.0018324244301766157,-0.0016791920643299818,0.0023665395565330982
1761140473053110500,6.801110595703125,-0.00017673667753115296,-0.0026356603484600782,-0.0009421792929060757
1761140473063169800,6.811169677734375,-0.00030882941791787744,0.0033492613583803177,-0.000050819304306060076
1761140473073229800,6.821229736328125,0.000336848315782845,-0.009000713005661964,0.0011096922680735588
1761140473083288600,6.83128857421875,-0.0013870159164071083,0.002802416682243347,0.002044461667537689
1761140473093347800,6.841347900390625,-0.001767897978425026,0.00008505349978804588,-0.0013973547611385584
1761140473103406600,6.851406494140625,0.0009381399140693247,0.0018075862899422646,0.0009283836698159575
1761140473113466600,6.861466552734375,-0.00163016386795789,0.0036462913267314434,-0.00032337335869669914
1761140473123525600,6.871525634765625,0.003351811319589615,0.005801055114716291,0.0024551027454435825
1761140473133584600,6.881584716796875,-0.0004470206331461668,0.005528218578547239,0.002296591177582741
1761140473143643600,6.8916435546875,0.00010744953760877252,0.004002493340522051,0.0035719790030270815
1761140473153703700,6.90170361328125,0.0018987987423315644,0.000008003786206245422,0.001381211681291461
1761140473163762700,6.9117626953125,0.00012353557394817472,0.001992857549339533,-0.0000803312286734581
1761140473173821700,6.92182177734375,-0.00007220718543976545,0.0027259024791419506,-0.0021908555645495653
1761140473183880400,6.93188037109375,0.00021541421301662922,0.0031101969070732594,-0.00011438882211223245
1761140473193940700,6.941940673828125,0.001023616991005838,0.0004307902418076992,0.003071337239816785
1761140473203999700,6.951999755859375,-0.0005575017421506345,-0.001604663673788309,0.0007738282438367605
1761140473214058800,6.962058837890625,0.0010366764618083835,0.00019462453201413155,0.0008081429987214506
1761140473224117800,6.97211767578125,0.0010478617623448372,0.00005107978358864784,-0.003933881875127554
1761140473234177500,6.982177490234375,0.0013981503434479237,-0.001047126017510891,0.0007738915737718344
1761140473244236800,6.99223681640625,-0.0014706067740917206,-0.00031182728707790375,-0.00027459493139758706
1761140473254295600,7.002295654296875,0.002191714011132717,-0.0011200252920389175,-0.0017150620697066188
1761140473264354800,7.012354736328125,-0.0013353764079511166,-0.003075584303587675,0.0011915118666365743
1761140473274414800,7.022414794921875,0.0005391369923017919,0.0006299382075667381,-0.002934931544587016
1761140473284473600,7.0324736328125,0.001155392499640584,-0.0009269458241760731,0.0011066817678511143
1761140473294532900,7.042532958984375,-0.0007061297073960304,-0.0036555947735905647,0.0013710345374420285
1761140473304591600,7.052591552734375,0.0008803153177723289,-0.00352217024192214,-0.0004372518160380423
1761140473314651600,7.062651611328125,0.0011598108103498816,-0.0011034156195819378,0.0004262629081495106
1761140473324710700,7.072710693359375,0.0007395639549940825,-0.0029010495636612177,-0.0006648341659456491
1761140473334769700,7.082769775390625,-0.0016305798199027777,-0.004993746057152748,-0.002286201110109687
1761140473344828700,7.09282861328125,0.001239242497831583,-0.006528259254992008,-0.0013844547793269157
1761140473354888700,7.102888671875,-0.001742372871376574,-0.002694936702027917,-0.0033380354288965464
1761140473364947500,7.112947509765625,0.0020401147194206715,-0.004205481614917517,-0.00038325838977470994
1761140473375006700,7.1230068359375,-0.0006466142367571592,0.0011264490894973278,-0.0024271660950034857
1761140473385065500,7.1330654296875,0.0009342381963506341,-0.004121310077607632,-0.002645012689754367
1761140473395125500,7.14312548828125,-0.002338812220841646,0.0014653317630290985,0.00032510183518752456
1761140473405184800,7.153184814453125,0.0004117003991268575,0.0008256402797996998,0.0014260526513680816
1761140473415243500,7.163243408203125,0.00011941103730350733,-0.00038451654836535454,-0.00021945126354694366
1761140473425302800,7.173302734375,0.00018252793233841658,0.0009712991304695606,-0.001059412257745862
1761140473435362600,7.183362548828125,-0.0019575878977775574,-0.00015475740656256676,-0.0018346465658396482
1761140473445421600,7.193421630859375,-0.00121030502486974,0.0006393971852958202,-0.0008452823967672884
1761140473455480600,7.20348046875,0.0021343049593269825,-0.0006894320249557495,-0.0012115390272811055
1761140473465539600,7.21353955078125,0.000059968733694404364,0.0013803769834339619,-0.0001289640786126256
1761140473475600000,7.223599853515625,0.00021744414698332548,0.0008241394534707069,0.0015006358735263348
1761140473485658600,7.23365869140625,-0.0011085437145084143,0.003469457384198904,-0.0004535916377790272
1761140473495718000,7.2437177734375,-0.0035493052564561367,-0.000019146129488945007,-0.0019558891654014587
1761140473505776600,7.253776611328125,-0.0005274160648696125,-0.0014426056295633316,0.0022812001407146454
1761140473515836700,7.263836669921875,-0.0014550150372087955,0.0013846061192452908,-0.002439054660499096
1761140473525895700,7.273895751953125,0.0014217314310371876,0.001289531122893095,0.00016391900135204196
1761140473535954700,7.28395458984375,0.0012815555091947317,-0.0010616038925945759,0.0008717435994185507
1761140473546013700,7.294013671875,0.0003846028703264892,-0.00020193587988615036,0.0006557612214237452
1761140473556073700,7.30407373046875,-0.0013588981237262487,-0.0007448010146617889,0.001361738657578826
1761140473566132700,7.3141328125,-0.0002427674480713904,0.0005678711459040642,-0.00024041900178417563
1761140473576191700,7.324191650390625,0.0028524589724838734,-0.001023690216243267,0.002896929392591119
1761140473586250800,7.334250732421875,0.0022170287556946278,0.002121236640959978,-0.0035721552558243275
1761140473596310500,7.344310546875,0.001591147854924202,-0.00020176731050014496,-0.00018107867799699306
1761140473606369800,7.354369873046875,-0.0008216760470531881,-0.0026159225963056087,-0.0018772459588944912
1761140473616428500,7.364428466796875,0.0004101486993022263,0.000010748393833637238,-0.0026350899133831263
1761140473626487800,7.37448779296875,-0.0010817542206496,-0.0013559856452047825,-0.0014883328694850206
1761140473636547600,7.384547607421875,0.0012705940753221512,-0.001072789542376995,-0.001765274559147656
1761140473646606600,7.394606689453125,0.00029880658257752657,0.0020356522873044014,0.0007383631891570985
1761140473656665600,7.40466552734375,-0.0016462737694382668,0.0024862997233867645,-0.00018882175209000707
1761140473666724600,7.414724609375,0.00011141237337142229,-0.0015672978479415178,0.000730767787899822
1761140473676784600,7.42478466796875,-0.00031483283964917064,-0.00018816860392689705,-0.0005098319379612803
1761140473686843600,7.43484375,-0.00024372636107727885,-0.0023461279924958944,0.0010260130511596799
1761140473696902700,7.444902587890625,-0.002528578042984009,-0.00030834972858428955,-0.0027401745319366455
1761140473706961700,7.454961669921875,-0.00019271927885711193,-0.00043964385986328125,-0.00018886622274294496
1761140473717021700,7.465021728515625,-0.0037774371448904276,0.0007792031392455101,-0.0001985198468901217
1761140473727080700,7.475080810546875,0.0014705881476402283,-0.0020344266667962074,0.002351190662011504
1761140473737139700,7.4851396484375,0.0004217098467051983,-0.001097257249057293,0.0003365280572324991
1761140473747198500,7.495198486328125,-0.000914930715225637,-0.0009057759307324886,-0.0007985111442394555
1761140473757258800,7.5052587890625,-0.001669125398620963,-0.00032805977389216423,-0.0005080034025013447
1761140473767317800,7.51531787109375,0.00010720314458012581,-0.0005134157836437225,0.0009245109395124018
1761140473777376800,7.525376708984375,-0.002291017211973667,-0.0005568200722336769,-0.001462208922021091
1761140473787435800,7.535435791015625,-0.00016288505867123604,-0.00008410913869738579,-0.0017410417785868049
1761140473797495600,7.54549560546875,0.001085494877770543,0.0022768331691622734,0.00027091684751212597
1761140473807554800,7.555554931640625,-0.0005638008005917072,-0.0016193713527172804,0.0012464327737689018
1761140473817613600,7.565613525390625,0.0013446781085804105,0.0025020535103976727,0.002231460763141513
1761140473827672800,7.5756728515625,0.0010258977999910712,0.00001945486292243004,-0.00028868851950392127
1761140473837732900,7.58573291015625,0.00020012707682326436,-0.000135782640427351,0.0006540147587656975
1761140473847791600,7.59579150390625,-0.0013575558550655842,0.0005201539024710655,-0.0009721114183776081
1761140473857851000,7.605850830078125,-0.0011780422646552324,-0.0014622632879763842,-0.0010149991139769554
1761140473867909600,7.61590966796875,-0.0004440750344656408,0.00126268295571208,-0.0008560084388591349
1761140473877969700,7.6259697265625,-0.00011874095071107149,-0.0005129817873239517,-0.0015043368330225348
1761140473888029000,7.63602880859375,-0.0003456423291936517,0.0012726676650345325,0.0016650912584736943
1761140473898087700,7.646087646484375,-0.0006851435755379498,0.00187744852155447,-0.0005750664859078825
1761140473908147000,7.65614697265625,-0.00022148719290271401,-0.0015660186763852835,0.0024034129455685616
1761140473918206700,7.666206787109375,-0.001257794676348567,-0.0009190342389047146,0.00032946799183264375
1761140473928265700,7.676265625,-0.0016287730541080236,0.0014240150339901447,0.0007148273871280253
1761140473938324700,7.68632470703125,0.0007303656311705709,-0.00029405951499938965,-0.0010579656809568405
1761140473948383700,7.6963837890625,-0.0012222640216350555,0.0025531258434057236,-0.0019716962706297636
1761140473958443500,7.706443603515625,0.00018773204647004604,0.002247109543532133,-0.0007339139701798558
1761140473968502800,7.716502685546875,-0.0014826026745140553,0.0014271223917603493,0.0014416223857551813
1761140473978561500,7.7265615234375,-0.0007083889213390648,-0.002320703351870179,-0.00005192979006096721
1761140473988620800,7.736620849609375,0.0001595352659933269,-0.0002546231262385845,0.0007683237781748176
1761140473998680800,7.746680908203125,-0.0016091687139123678,0.0012257089838385582,-0.00017031986499205232
1761140474008739600,7.756739501953125,-0.002714380621910095,0.0007695094682276249,0.0023266600910574198
1761140474018798800,7.766798828125,0.0005772992735728621,-0.0006615715101361275,0.0004206760786473751
1761140474028857600,7.776857666015625,-0.001964954426512122,-0.001056518405675888,0.0015075120609253645
1761140474038918000,7.78691796875,0.001545875915326178,0.0005972110666334629,-0.00035905512049794197
1761140474048976600,7.7969765625,0.0017309655668213964,-0.000451807864010334,-0.0006506711943075061
1761140474059036000,7.807035888671875,-0.0003771627089008689,0.00044759782031178474,0.002881307154893875
1761140474069094700,7.8170947265625,-0.00023148779291659594,0.0006374809890985489,0.0013172326143831015
1761140474079154700,7.82715478515625,0.0006715988274663687,0.002581510227173567,-0.000010989431757479906
1761140474089214000,7.8372138671875,-0.0009755662176758051,-0.0005026962608098984,0.0005309638218022883
1761140474099272700,7.847272705078125,-0.0008390716393478215,0.0009453683160245419,0.001545039238408208
1761140474109332000,7.85733203125,-0.0013272289652377367,0.0005142027512192726,0.002446785569190979
1761140474119391700,7.867391845703125,0.0014548778999596834,-0.0015147526282817125,0.0010362218599766493
1761140474129450800,7.87745068359375,0.0036003203131258488,-0.00025614257901906967,0.0018879007548093796
1761140474139509800,7.887509765625,0.00008424918632954359,0.00046438397839665413,-0.0007446633535437286
1761140474149568800,7.89756884765625,0.000009148032404482365,0.0013227206654846668,-0.001144137466326356
1761140474159628800,7.90762890625,-0.0004026895039714873,-0.0001958678476512432,-0.0003918731235899031
1761140474169687800,7.917687744140625,0.0013318273704499006,0.0015133488923311234,0.0009506263886578381
1761140474179746800,7.927746826171875,-0.0007082147058099508,-0.00021130917593836784,0.0016909416299313307
1761140474189805800,7.937805908203125,-0.00047944916877895594,-0.0004994631744921207,0.0011971916537731886
1761140474199865900,7.947865966796875,-0.0005212077521719038,0.0007715453393757343,0.0002969023189507425
1761140474209924600,7.957924560546875,0.0018980077002197504,0.0020280247554183006,-0.002482638694345951
1761140474219984000,7.96798388671875,0.0012166110100224614,-0.0015599606558680534,0.0001523172832094133
1761140474230042600,7.978042724609375,-0.0010249714832752943,0.000046191737055778503,-0.0005853783804923296
1761140474240102700,7.9881025390625,-0.0006190815474838018,0.00029529863968491554,0.00025553646264597774
1761140474250161700,7.99816162109375,-0.0016004564240574837,0.00016080867499113083,-0.0015833763172850013
1761140474260220700,8.008220703125,-0.0005820657243020833,0.00044248998165130615,0.0024712460581213236
1761140474270279700,8.01827978515625,-0.0015562500339001417,0.0010984265245497227,-0.0009431927464902401
1761140474280339700,8.028339599609374,0.00010432308772578835,0.0007859566248953342,0.001332010142505169
1761140474290398700,8.038398681640626,-0.00025999732315540314,0.0008243061602115631,-0.001520768040791154
1761140474300457700,8.048457763671875,0.000005512672942131758,-0.0004979623481631279,-0.00025294575607404113
1761140474310516700,8.058516845703124,-0.00038677093107253313,-0.0009395144879817963,0.001137224375270307
1761140474320576800,8.06857666015625,-0.0011328223627060652,-0.00042935367673635483,0.0025050838012248278
1761140474330635800,8.0786357421875,-0.00006382964784279466,-0.000005911104381084442,0.0016637911321595311
1761140474340694800,8.08869482421875,0.000762159819714725,-0.0006292746402323246,0.0009329636814072728
1761140474350753800,8.09875390625,-0.0004232131759636104,0.0006338628008961678,-0.0024806761648505926
1761140474360813800,8.108813720703125,-0.0016788081265985966,-0.00011699413880705833,-0.001096439198590815
1761140474370872800,8.118872802734375,0.0005627745995298028,0.0013256403617560863,-0.00030228449031710625
1761140474380931800,8.128931884765626,-0.0009513552067801356,0.0007253391668200493,-0.00032097636722028255
1761140474390990800,8.138990966796875,0.00014560087583959103,0.0005564945749938488,-0.0006836988031864166
1761140474401051000,8.14905078125,-0.0008235502755269408,-0.0005158940330147743,-0.002446192316710949
1761140474411109600,8.159109619140626,0.0012742218095809221,0.00036161765456199646,-0.0007577482028864324
1761140474421169000,8.1691689453125,0.002527780132368207,0.0002537784166634083,-0.0006404884625226259
1761140474431227600,8.1792275390625,-0.0024994690902531147,-0.0030139205045998096,-0.0008985488675534725
1761140474441287700,8.18928759765625,-0.0005093273939564824,0.000001953914761543274,0.000312671298161149
1761140474451347000,8.199346923828125,-0.00020359654445201159,-0.00247665005736053,0.0010429100366309285
1761140474461405700,8.20940576171875,-0.0004138518124818802,0.0019043548963963985,0.00044998875819146633
1761140474471465000,8.21946484375,0.001067930948920548,0.00018448522314429283,0.0009421409340575337
1761140474481524700,8.229524658203125,-0.0009143728530034423,0.0003250441513955593,-0.002508913865312934
1761140474491583700,8.239583740234375,-0.0023969546891748905,-0.0006949468515813351,-0.0008620151784271002
1761140474501642800,8.249642822265624,-0.0000153106520883739,0.00004112487658858299,-0.0008887025760486722
1761140474511701800,8.25970166015625,-0.0000019948347471654415,0.001105590257793665,-0.000614663353189826
1761140474521761500,8.269761474609375,-0.0006345098372548819,0.00019125407561659813,0.0008488078019581735
1761140474531820800,8.27982080078125,-0.0006262540118768811,0.0007212227210402489,-0.001981067005544901
1761140474541879600,8.289879638671875,0.0033281915821135044,-0.002183613134548068,0.0011346634710207582
1761140474551938800,8.299938720703125,-0.00028811482479795814,0.001668649259954691,0.0011415877379477024
1761140474561998800,8.309998779296874,0.0021498906426131725,-0.0016995561309158802,-0.002321458188816905
1761140474572057600,8.3200576171875,-0.0000362984137609601,-0.0007775700651109219,0.0011449122102931142
1761140474582116900,8.330116943359375,-0.00008658075239509344,0.0015328014269471169,0.0024177301675081253
1761140474592175600,8.340175537109374,-0.00009323866106569767,-0.001131957396864891,0.0011980023700743914
1761140474602236000,8.35023583984375,-0.00008543604053556919,0.0014840951189398766,0.0013084140373393893
1761140474612294700,8.360294677734375,0.0012932823738083243,-0.0013487092219293118,0.0010189283639192581
1761140474622354000,8.37035400390625,-0.00010443577775731683,0.0004253564402461052,0.0017729734536260366
1761140474632412700,8.38041259765625,-0.0010882073547691107,0.0006940695457160473,-0.0009160203626379371
1761140474642472700,8.39047265625,-0.001696940278634429,-0.00007623014971613884,-0.004590036813169718
1761140474652532000,8.400531982421874,-0.0015438084956258535,0.001343767624348402,0.00009126798249781132
1761140474662590700,8.4105908203125,-0.000027065281756222248,0.00017456570640206337,0.0024603919591754675
1761140474672650000,8.42064990234375,-0.002564258873462677,0.0025650192983448505,0.0009450532961636782
1761140474682708700,8.430708740234374,0.0013154938351362944,0.00022249482572078705,0.0024662530049681664
1761140474692768800,8.440768798828126,-0.0007588423322886229,-0.00034289387986063957,0.00020336511079221964
1761140474702827800,8.450827880859375,-0.000378708413336426,0.0005032937042415142,0.0018924963660538197
1761140474712886800,8.46088671875,0.00047323681064881384,-0.0018354940693825483,0.0022024884819984436
1761140474722945800,8.47094580078125,0.00045613720430992544,-0.0013196212239563465,0.00003547803498804569
1761140474733005800,8.481005859375,0.0001962126698344946,-0.0006277323700487614,0.0015486860647797585
1761140474743064600,8.491064697265625,-0.00011839094804599881,0.00006682751700282097,-0.00008636026177555323
1761140474753123800,8.501123779296876,0.001282165409065783,-0.0027840861584991217,-0.000014987541362643242
1761140474763182600,8.5111826171875,0.0013075396418571472,0.0003412105143070221,-0.00012497929856181145
1761140474773242600,8.52124267578125,0.0006990074180066586,-0.0032788242679089308,-0.001701038097962737
1761140474783302000,8.531302001953126,0.0013913862640038133,0.0004428885877132416,0.0013825302012264729
1761140474793360600,8.541360595703125,0.0007282591541297734,0.0009595416486263275,0.00003736751386895776
1761140474803420000,8.551419921875,0.00033099506981670856,0.003176586702466011,0.001201459439471364
1761140474813479700,8.561479736328126,-0.00153321772813797,0.0013254238292574883,0.0016318261623382568
1761140474823538700,8.57153857421875,-0.00030663347570225596,-0.0009779618121683598,0.002479691058397293
1761140474833597700,8.58159765625,0.0003871200024150312,0.00021140603348612785,0.0029902192763984203
1761140474843656700,8.59165673828125,-0.0010019708424806595,0.0009107734076678753,-0.001135478843934834
1761140474853717500,8.601717529296875,0.00010563776595517993,0.00002021249383687973,-0.0008417322533205152
1761140474863776500,8.611776611328125,0.001349620521068573,0.002303848508745432,0.000023365719243884087
1761140474873835500,8.62183544921875,0.0005184479523450136,-0.0005566528998315334,0.002310754731297493
1761140474883894500,8.63189453125,-0.0004726624465547502,-0.000680417288094759,0.0007441290654242039
1761140474893954600,8.64195458984375,0.0007920727366581559,0.00006633298471570015,-0.00017625943291932344
1761140474904013300,8.652013427734374,-0.0014135800302028656,0.0011223722249269485,-0.0015631455462425947
1761140474914072600,8.662072509765625,0.0003281274694018066,0.0016113286837935448,0.002458493923768401
1761140474924131300,8.67213134765625,0.0003325988072901964,-0.00036958325654268265,-0.0003664849791675806
1761140474934191400,8.68219140625,-0.00044690846698358655,0.0023082252591848373,0.002256195992231369
1761140474944250600,8.692250732421876,-0.0008626163471490145,0.00240960530936718,0.0003689667792059481
1761140474954309400,8.702309326171875,-0.001473811804316938,-0.0008860565721988678,0.0003021214506588876
1761140474964368600,8.71236865234375,0.00036375701893121004,-0.0005084420554339886,0.000641344697214663
1761140474974428400,8.722428466796876,0.0010412652045488358,0.0005269949324429035,0.00005971034988760948
1761140474984487400,8.7324873046875,0.0012557610170915723,0.0019497321918606758,0.0005785287357866764
1761140474994546400,8.74254638671875,-0.0006979338941164315,0.000572611577808857,0.000060277641750872135
1761140475004605400,8.75260546875,-0.001962890848517418,0.0007605426944792271,-0.002035589888691902
1761140475014665700,8.762665771484375,0.0003359497641213238,0.00004814751446247101,0.0004147846484556794
1761140475024724500,8.772724365234374,0.0020995568484067917,-0.00027467263862490654,0.001760585349984467
1761140475034783500,8.782783447265626,0.0001186977606266737,0.00045450078323483467,0.0011453951010480523
1761140475044842500,8.792842529296875,-0.0012897043488919735,0.00003172270953655243,-0.0032320949248969555
1761140475054902500,8.802902587890625,-0.002647916553542018,-0.00017493823543190956,0.0003754227655008435
1761140475064961500,8.81296142578125,0.0000036967103369534016,-0.0023030966985970736,-0.0012139264727011323
1761140475075020500,8.8230205078125,0.0008455219212919474,-0.00033022696152329445,-0.00004320091102272272
1761140475085079600,8.83307958984375,-0.001091852318495512,0.001569089014083147,-0.002160252770408988
1761140475095139600,8.8431396484375,-0.00009609642438590527,-0.001469045178964734,-0.002662791172042489
1761140475105198600,8.853198486328125,-0.0006888325442560017,-0.00014505628496408463,0.0008329396368935704
1761140475115257600,8.863257568359375,-0.0003490131930448115,0.0003175348974764347,-0.00007599720265716314
1761140475125316600,8.873316650390626,0.000983327510766685,0.0002643922343850136,0.00023048202274367213
1761140475135375600,8.883375732421875,0.0003276572097092867,0.0003533419221639633,0.0002704294165596366
1761140475145435600,8.893435546875,-0.0004979342920705676,-0.001513342373073101,-0.0003674781182780862
1761140475155494400,8.903494384765626,-0.0002124435268342495,0.002447310835123062,-0.000631663715466857
1761140475165553700,8.9135537109375,0.0013456871965900064,-0.0015845661982893944,-0.00257200188934803
1761140475175612400,8.9236123046875,0.0008037338848225772,0.0011840560473501682,0.001641385373659432
1761140475185672400,8.93367236328125,-0.00009748490992933512,-0.000023241154849529266,-0.0002198192523792386
1761140475195731500,8.9437314453125,-0.0007638079114258289,-0.0013287225738167763,0.0025466722436249256
1761140475205790500,8.95379052734375,0.0010435450822114944,0.001497236080467701,-0.0014389549614861608
1761140475215849500,8.963849365234376,-0.0021125671919435263,0.0007464908994734287,0.000750163453631103
1761140475225909500,8.973909423828125,-0.0005513101350516081,0.001082140952348709,-0.0010819518938660622
1761140475235968500,8.983968505859375,0.0003722740802913904,0.003547162748873234,0.001069349586032331
1761140475246027500,8.994027587890624,-0.00008892972255125642,0.0010778973810374737,-0.0002443337580189109
1761140475256086500,9.00408642578125,-0.0004979912773706019,-0.0003330451436340809,0.00027817842783406377
1761140475266146300,9.014146240234375,0.0017449380829930305,0.0002733282744884491,0.0024267942644655704
1761140475276205600,9.02420556640625,0.001232013339176774,-0.0012318906374275684,-0.00067525589838624
1761140475286264300,9.034264404296875,0.0005106967291794717,0.0008341739885509014,-0.002666221233084798
1761140475296323600,9.044323486328125,-0.0017010585870593786,-0.0005211085081100464,-0.0004906849935650826
1761140475306383600,9.054383544921874,-0.0008963256841525435,0.0001917518675327301,0.002445243764668703
1761140475316442400,9.0644423828125,0.0008491101325489581,-0.0015243890229612589,0.0005679814494214952
1761140475326501600,9.074501708984375,0.0013734570238739252,-0.0013288273476064205,0.0012364655267447233
1761140475336560400,9.084560302734374,0.0007947520352900028,-0.0002816724590957165,0.00013631372712552547
1761140475346620700,9.09462060546875,-0.0023201871663331985,0.00023216940462589264,0.0024228612892329693
1761140475356679400,9.104679443359375,-0.0030504255555570126,-0.0005092546343803406,-0.0024808174930512905
1761140475366738400,9.114738525390624,-0.0001058545894920826,0.0005466430447995663,0.001119690597988665
1761140475376797400,9.12479736328125,0.0016433096025139093,-0.0015774942003190517,-0.0004619607934728265
1761140475386857500,9.134857421875,0.0001302697928622365,0.0020372960716485977,-0.000721642398275435
1761140475396916500,9.14491650390625,0.0007260189158841968,-0.0004149428568780422,0.002425947692245245
1761140475406975500,9.1549755859375,-0.0036526485346257687,0.00011001480743288994,0.00022009806707501411
1761140475417034800,9.16503466796875,0.0005772503791376948,-0.0004476509056985378,0.001579375471919775
1761140475427094500,9.175094482421875,0.0009589104447513819,-0.00034859776496887207,0.0006144323269836605
1761140475437153500,9.185153564453126,0.0019136536866426468,0.000048479530960321426,0.00008499587420374155
1761140475447212500,9.195212646484375,0.000810811179690063,-0.0012964685447514057,0.0016563530080020428
1761140475457271600,9.205271484375,0.0008962986757978797,-0.000918832141906023,0.003742673434317112
1761140475467330600,9.21533056640625,-0.0005934720393270254,-0.00004133721813559532,0.0007195421494543552
1761140475477390600,9.225390625,0.00010161299724131823,0.0015078233554959297,0.00008650869131088257
1761140475487449300,9.235449462890625,-0.001473354990594089,-0.0005212435498833656,0.0006647557020187378
1761140475497508600,9.245508544921876,-0.0007598941447213292,-0.0019723998848348856,-0.0015446026809513569
1761140475507567400,9.2555673828125,-0.001474213320761919,0.0004926156252622604,0.00145137426443398
1761140475517627400,9.26562744140625,0.000429414096288383,0.0027003763243556023,-0.000046653905883431435
1761140475527686700,9.275686767578126,-0.0005602322053164244,0.0009213755838572979,-0.0002857224317267537
1761140475537745400,9.285745361328125,0.001829688553698361,0.0011493423953652382,0.0003656867775134742
1761140475547804700,9.2958046875,0.0005033508059568703,-0.00017814012244343758,-0.0004162973491474986
1761140475557864400,9.305864501953126,-0.0014444852713495493,-0.0004085036925971508,0.000047891633585095406
1761140475567923500,9.31592333984375,0.0013953904854133725,0.00017946772277355194,0.0008866087882779539
1761140475577982500,9.325982421875,-0.000510101264808327,0.001528359018266201,0.0013241661945357919
1761140475588041500,9.33604150390625,0.00008208013605326414,-0.0002439902164041996,-0.000542578287422657
1761140475598101500,9.3461015625,-0.00111980433575809,0.0018007848411798477,0.000053170835599303246
1761140475608160500,9.356160400390625,-0.0013866893714293838,0.0005583646707236767,-0.0014389798743650317
1761140475618219500,9.366219482421876,-0.000034602475352585316,0.000941326841711998,-0.0004301744047552347
1761140475628278500,9.376278564453125,-0.0016159254591912031,-0.0006198221817612648,-0.0004477576585486531
1761140475638338600,9.386338623046875,-0.0008832899038679898,0.001280609518289566,-0.001678936998359859
1761140475648397600,9.3963974609375,0.001085466705262661,0.0009268405847251415,0.0005638741422444582
1761140475658456600,9.40645654296875,0.000210884609259665,-0.0011847796849906445,0.001026997808367014
1761140475668515300,9.416515380859375,0.0018466752953827381,-0.0022204043343663216,0.0017218379070982337
1761140475678575600,9.42657568359375,0.0033881128765642643,0.0003897598944604397,0.0037618193309754133
1761140475688634400,9.43663427734375,0.0010390814859420061,-0.0003577643074095249,0.000535396218765527
1761140475698693600,9.446693603515625,-0.00043790764175355434,0.0022526662796735764,-0.0005021713441237807
1761140475708752400,9.45675244140625,-0.0015254836762323976,0.000667991116642952,-0.0004142620600759983
1761140475718811400,9.466811279296875,-0.003014723304659128,0.002009958028793335,-0.0009250562870875001
1761140475728871700,9.47687158203125,0.0027750707231462,-0.0024525292683392763,-0.0013341165613383055
1761140475738930400,9.486930419921874,0.002062408719211817,0.001928637269884348,-0.0014925745781511068
1761140475748989700,9.49698974609375,0.0023962941486388445,0.0004260484129190445,0.0016441880725324154
1761140475759048400,9.50704833984375,0.00037628645077347755,-0.001303941011428833,0.0024127764627337456
1761140475769108500,9.5171083984375,0.00010151555761694908,-0.0015025315806269646,-0.0005146256880834699
1761140475779167500,9.52716748046875,0.002041095867753029,-0.0013323556631803513,0.0021871512290090322
1761140475789226500,9.5372265625,-0.0002826183335855603,-0.002192118437960744,0.00029640126740559936
1761140475799285500,9.547285400390624,-0.0022765269968658686,-0.0012877089902758598,0.0004252982325851917
1761140475809345500,9.557345458984376,0.0013715518871322274,-0.001540972851216793,0.002072894014418125
1761140475819404500,9.567404541015625,-0.0010298205306753516,-0.0002738409675657749,-0.00261347065679729
1761140475829463600,9.577463623046874,-0.00020853697787970304,-0.000712384469807148,-0.001203593797981739
1761140475839522600,9.5875224609375,0.0025843200273811817,0.002188863232731819,-0.0002360673388466239
1761140475849582000,9.59758203125,-0.00007709185592830181,0.0014951410703361034,-0.00025219283998012543
1761140475859640800,9.607640869140624,-0.0016323779709637165,0.000845596194267273,-0.004323899745941162
1761140475869699800,9.617699951171875,-0.0003519294550642371,-0.001544192899018526,0.0008382222149521112
1761140475879758800,9.6277587890625,0.0001061342773027718,-0.002471505431458354,-0.0005471542244777083
1761140475889819000,9.63781884765625,0.0012942487373948097,0.002947673201560974,0.001343929790891707
1761140475899878100,9.647878173828126,0.0021834783256053925,0.00043284986168146133,0.003079245565459132
1761140475909937000,9.65793701171875,0.001105300965718925,0.00139143830165267,0.002753914799541235
1761140475919996000,9.667995849609374,0.00004349864320829511,-0.0015409686602652073,0.0018985073547810316
1761140475930056000,9.678055908203126,-0.0010681325802579522,0.0013825492933392525,-0.0008346037939190865
1761140475940115000,9.688114990234375,0.0006173821748234332,-0.0010039089247584343,-0.000043112318962812424
1761140475950174000,9.698174072265624,0.0037000547163188457,-0.00039398157969117165,-0.00033160310704261065
1761140475960233000,9.70823291015625,0.001143952482379973,0.000470214057713747,-0.0002588988281786442
1761140475970292000,9.7182919921875,0.0032939612865448,-0.0001564212143421173,-0.0015013529919087887
1761140475980352000,9.72835205078125,0.0008244119817391038,0.0011570495553314686,0.0015820548869669437
1761140475990410800,9.73841064453125,0.0006992015987634659,-0.0015170120168477297,0.0007682804716750979
1761140476000470000,9.748469970703125,0.0012392906937748194,0.000619109719991684,0.0014955897349864244
1761140476010529000,9.758529052734374,-0.0010473381262272596,0.0019153086468577385,-0.0018609693506732583
1761140476020588800,9.7685888671875,-0.0024042187724262476,0.0022407472133636475,-0.0008612185483798385
1761140476030648000,9.77864794921875,-0.0007036651950329542,-0.0009625423699617386,0.0004050545394420624
1761140476040706800,9.788706787109374,0.0015847890172153711,0.0006723720580339432,0.0015238485066220164
1761140476050766000,9.79876611328125,-0.000014926423318684101,-0.001294819638133049,0.0008608243661001325
1761140476060825900,9.808825927734375,0.0004471320426091552,-0.00046631041914224625,0.0014464535051956773
1761140476070884900,9.818884765625,0.00015312060713768005,-0.0002861926332116127,-0.00015529210213571787
1761140476080943900,9.82894384765625,-0.0012972368858754635,0.0014786841347813606,-0.0013324093306437135
1761140476091003000,9.8390029296875,0.0002962842700071633,0.00008896831423044205,-0.002631165087223053
1761140476101063000,9.84906298828125,0.0023280098102986813,-0.0010620499961078167,-0.002214646665379405
1761140476111122000,9.859121826171876,0.0005828533903695643,0.001162456814199686,-0.0006664763204753399
1761140476121181000,9.869180908203125,-0.000006237765774130821,0.0003810850903391838,-0.0001263872254639864
1761140476131240000,9.879239990234375,-0.0004088473506271839,-0.0014320292975753546,0.001633167965337634
1761140476141300000,9.889300048828124,-0.00046717061195522547,0.00010461453348398209,-0.0003932313993573189
1761140476151358700,9.899358642578125,0.000010985415428876877,0.00013416074216365814,-0.000820375862531364
1761140476161418000,9.90941796875,0.00033429311588406563,-0.0006197802722454071,-0.0013586007989943027
1761140476171476700,9.919476806640626,0.001178797334432602,-0.0012166183441877365,0.0009483771864324808
1761140476181536000,9.929535888671875,-0.0007687724428251386,-0.001495717791840434,0.00042266916716471314
1761140476191596000,9.939595947265625,-0.0013205684954300523,0.0011336631141602993,-0.0015678770141676068
1761140476201654800,9.94965478515625,0.0008701477781869471,0.000911288894712925,-0.003696808125823736
1761140476211714000,9.959714111328125,-0.001557602547109127,-0.0003119576722383499,0.0017655615229159594
1761140476221772800,9.969772705078125,-0.0006361488485708833,-0.0016105147078633308,0.0007567561697214842
1761140476231833000,9.9798330078125,-0.0004875451559200883,-0.0004757535643875599,-0.001866810955107212
1761140476241891800,9.989891845703125,0.0023772171698510647,0.0004049539566040039,0.0008730491390451789
1761140476251951000,9.999951171875,-0.0017853262834250927,-0.0002624033950269222,0.000020233739633113146
1761140476262009900,10.010009765625,0.001224578358232975,0.0008630482479929924,-0.0007901662029325962
1761140476272070000,10.02006982421875,-0.0010294399689882994,0.0002680215984582901,-0.000056445132941007614
1761140476282129000,10.03012890625,0.0005354333552531898,0.0006336737424135208,-0.0009810946648940444
1761140476292188000,10.04018798828125,0.0005041282274760306,-0.00139821064658463,-0.0009934536647051573
1761140476302247000,10.050246826171875,0.000594409357290715,0.0018676239997148514,-0.0001404432114213705
1761140476312307000,10.060306884765625,0.0004543829127214849,0.0006389250047504902,0.00012680049985647202
1761140476322366000,10.070365966796874,-0.00044443400111049414,0.0018927413038909435,-0.0011669631348922849
1761140476332425000,10.080425048828126,0.0008961947169154882,0.0005197538994252682,-0.0008186631603166461
1761140476342484000,10.09048388671875,-0.0016226229490712285,0.0007373341359198093,0.0014468879671767354
1761140476352543700,10.100543701171874,-0.0003189322305843234,-0.00017287582159042358,-0.00144843605812639
1761140476362603000,10.11060302734375,-0.00043158396147191525,0.0043036313727498055,-0.001210615853779018
1761140476372661800,10.120661865234375,0.0019231396727263927,-0.0017160119023174047,-0.00011849717702716589
1761140476382721000,10.130720947265624,-0.0005789001006633043,-0.0008853720501065254,0.0020154938101768494
1761140476392779800,10.14077978515625,-0.0018183093052357435,0.0024207402020692825,0.0029005291871726513
1761140476402839800,10.15083984375,0.0009045065380632877,-0.00008156616240739822,-0.001566390972584486
1761140476412899000,10.160899169921874,0.003509161062538624,-0.0000034766271710395813,-0.0016727626789361238
1761140476422957800,10.170957763671876,-0.0010560298105701804,-0.00026712939143180847,-0.00021255144383758307
1761140476433017000,10.18101708984375,-0.00038862647488713264,-0.0002837725915014744,-0.0009369914187118411
1761140476443076900,10.191076904296875,0.0009908908978104591,0.0008981386199593544,0.0009080465533770621
1761140476453136000,10.201135986328126,-0.00047739758156239986,-0.000876330304890871,0.00014559435658156872
1761140476463195000,10.21119482421875,0.0008091755444183946,0.002321859821677208,0.0008856868371367455
1761140476473254000,10.22125390625,0.0013305933680385351,-0.0004925704561173916,-0.00008994946256279945
1761140476483314000,10.23131396484375,-0.0004896771861240268,0.0016936184838414192,0.0004855596926063299
1761140476493373000,10.241373046875,-0.0012424287851899862,0.000056490302085876465,0.0002855477505363524
1761140476503432000,10.251431884765625,-0.001556681701913476,0.0008064364083111286,0.004012375138700008
1761140476513491000,10.261490966796876,0.001046954421326518,-0.0012323148548603058,0.00022759195417165756
1761140476523551000,10.271551025390625,0.0011143323499709368,0.0024519022554159164,0.0014859356451779604
1761140476533610000,10.28160986328125,0.000726930215023458,0.00028156721964478493,0.001651508267968893
1761140476543669000,10.2916689453125,-0.002364733722060919,0.0014435048215091228,0.0006424365565180779
1761140476553727700,10.301727783203125,-0.0004175330977886915,-0.0014442414976656437,0.002331436611711979
1761140476563787000,10.311787109375,-0.00047985115088522434,0.0003416743129491806,0.001163107925094664
1761140476573846800,10.3218466796875,-0.0014679651940241456,0.0022610612213611603,0.00020532653434202075
1761140476583906000,10.331906005859375,0.0015541899483650923,-0.0012484523467719555,0.003413903061300516
1761140476593964800,10.34196484375,0.00010455347364768386,0.002184352371841669,-0.0005533689400181174
1761140476604023800,10.35202392578125,-0.002570059150457382,0.0026115239597857,0.0016003295313566923
1761140476614084000,10.362083984375,0.0001470638089813292,0.0021433578804135323,-0.0007665399461984634
1761140476624142800,10.372142822265625,0.0008040656102821231,0.0016285688616335392,0.00037782033905386925
1761140476634202000,10.3822021484375,0.0012132666306570172,-0.00046581774950027466,-0.0009086016798391938
1761140476644260900,10.3922607421875,-0.0025750799104571342,0.00016375351697206497,0.0004085978143848479
1761140476654321000,10.40232080078125,0.0018799079116433859,-0.00023021642118692398,-0.0010726777836680412
1761140476664380000,10.4123798828125,0.0012026660842821002,0.0004978920333087444,-0.0010798682924360037
1761140476674439000,10.42243896484375,-0.0012039458379149437,0.0017070472240447998,-0.00010103313252329826
1761140476684498000,10.432497802734375,-0.00041831342969089746,-0.000494854524731636,-0.002494948683306575
1761140476694558000,10.442557861328124,-0.0005035455105826259,-0.0008165938779711723,-0.001655590021982789
1761140476704617000,10.452616943359375,-0.002297184430062771,0.0021754675544798374,-0.0014702340122312307
1761140476714676000,10.462676025390625,0.001435155514627695,0.001651095226407051,0.0019229416502639651
1761140476724735000,10.47273486328125,0.003318010363727808,-0.0007878276519477367,-0.00019853247795253992
1761140476734794000,10.4827939453125,-0.00033179193269461393,-0.0005129226483404636,-0.00044096546480432153
1761140476744854000,10.49285400390625,-0.000596776488237083,0.0029068426229059696,-0.00017970945918932557
1761140476754912800,10.502912841796874,0.00012333382619544864,-0.0013976551126688719,0.0017961220582947135
1761140476764972000,10.512971923828125,-0.0016018619062379003,0.001713449601083994,-0.001880105584859848
1761140476775030800,10.52303076171875,0.0012954227859154344,0.0013622860424220562,-0.0005622939788736403
1761140476785090800,10.5330908203125,0.0012179247569292784,-0.0007019303739070892,0.0024862263817340136
1761140476795150000,10.543150146484376,-0.00040819786954671144,0.00009788386523723602,-0.0009365759906359017
1761140476805208800,10.553208740234375,0.000011782627552747726,-0.0015287750866264105,0.0010046020615845919
1761140476815268000,10.56326806640625,0.0018701801309362054,-0.00022045942023396492,0.000551602803170681
1761140476825327900,10.573327880859376,-0.0007439787732437253,0.0020690602250397205,-0.0017347211251035333
1761140476835387000,10.583386962890625,0.00016615132335573435,0.0014275535941123962,-0.0016074534505605698
1761140476845446000,10.59344580078125,-0.0016224277205765247,0.0027061370201408863,0.0005515712546184659
1761140476855505200,10.603505126953126,-0.0003245661500841379,0.0006613610312342644,0.0000583251821808517
1761140476865565200,10.613565185546875,0.0009098089649342,-0.0012806160375475883,-0.0005709798424504697
1761140476875624200,10.623624267578125,-0.00017050700262188911,0.0010955114848911762,-0.0006508366204798222
1761140476885683000,10.633682861328126,-0.0017553542274981737,0.001205500215291977,-0.0004803943447768688
1761140476895742200,10.6437421875,0.00015626160893589258,-0.00012742076069116592,0.001360062975436449
1761140476905802200,10.65380224609375,0.0004785041091963649,0.0003737863153219223,-0.0014594257809221745
1761140476915861200,10.663861328125,-0.0008150021312758327,-0.00020310375839471817,-0.0015824649017304182
1761140476925920300,10.673920166015625,0.0021403077989816666,0.0001857173629105091,0.0007944064564071596
1761140476935979000,10.68397900390625,0.0028323084115982056,0.0003463681787252426,0.0005893170018680394
1761140476946038300,10.694038330078126,-0.0010966532863676548,-0.00044432422146201134,0.0007616234943270683
1761140476956098000,10.70409814453125,0.0024842373095452785,-0.0016932100988924503,0.00006936065619811416
1761140476966157300,10.7141572265625,-0.002479895018041134,0.00028285523876547813,0.0014153223019093275
1761140476976216000,10.724216064453126,0.0003660094807855785,-0.0010541584342718124,0.0007133032777346671
1761140476986275000,10.734275146484375,0.0013804074842482805,-0.0004674638621509075,-0.001759974518790841
1761140476996335000,10.744335205078125,-0.0009794858051463962,-0.0006303871050477028,-0.001815439434722066
1761140477006394000,10.75439404296875,0.0010660882107913494,-0.0015766082797199488,0.0013880770420655608
1761140477016453000,10.764453125,-0.0005709461402148008,0.0005901670083403587,-0.0001678609405644238
1761140477026512100,10.77451220703125,0.0019151146989315748,-0.0011893571354448795,0.00228544301353395
1761140477036572200,10.784572265625,-0.0007623700657859445,0.002559912856668234,-0.0015490676742047071
1761140477046631200,10.794631103515625,0.0002525605959817767,-0.0005698343738913536,0.0023857527412474155
1761140477056690200,10.804690185546875,-0.0005810470320284367,0.0016808058135211468,-0.00003424653550609946
1761140477066749200,10.814749267578126,0.0014568038750439882,0.00044962624087929726,-0.00012532668188214302
1761140477076808200,10.82480810546875,-0.002494380110874772,0.002167065627872944,0.0005723191425204277
1761140477086868000,10.834867919921875,0.0005983489099889994,-0.0004928996786475182,0.0012205324601382017
1761140477096927200,10.84492724609375,-0.0009784698486328125,0.0013681715354323387,0.0012859734706580639
1761140477106986000,10.854986083984375,-0.0010913878213614225,0.0012595145963132381,0.00018741952953860164
1761140477117045200,10.865045166015625,0.0016793095273897052,0.0007493160665035248,8.717179298400879e-7
1761140477127105300,10.875105224609374,0.0005192365497350693,-0.00013804947957396507,0.00005972757935523987
1761140477137164000,10.8851640625,-0.00012685172259807587,-0.001338582020252943,0.0001157138030976057
1761140477147223300,10.895223388671875,0.0008449357119388878,0.0004902109503746033,-0.0014683345798403025
1761140477157282000,10.905281982421876,-0.0009206080576404929,-0.0006320243701338768,0.00004067679401487112
1761140477167342000,10.915342041015625,0.001471443218179047,-0.0009039333090186119,0.0005927500315010548
1761140477177401000,10.925401123046875,0.00022283237194642425,-0.0009405449964106083,-0.0014649804215878248
1761140477187460000,10.935460205078124,-0.0005486853187903762,-0.0001312103122472763,0.0007153494516387582
1761140477197519000,10.94551904296875,0.00047969422303140163,-0.00031943991780281067,-0.00010075879981741309
1761140477207579100,10.9555791015625,-0.00019621604587882757,0.00032211560755968094,0.0003772786003537476
1761140477217638000,10.965637939453124,-0.0010694462107494473,0.001249535009264946,0.000887462345417589
1761140477227697200,10.975697265625,0.0018951846286654472,-0.00016833189874887466,-0.0024966164492070675
1761140477237756000,10.985755859375,0.002297330182045698,-0.0004031597636640072,0.0005608936189673841
1761140477247815200,10.995815185546874,-0.00030910561326891184,-0.0012154239229857922,-0.0014647068455815315
1761140477257875200,11.005875244140626,0.00007650448242202401,0.0021543619222939014,0.0006177028408274055
1761140477267934200,11.015934326171875,-0.0012220528442412615,0.00047736940905451775,0.00041956367203965783
1761140477277993200,11.0259931640625,-0.0015658277552574873,0.0004140683449804783,-0.002773784101009369
1761140477288052000,11.036052001953125,0.0022685916628688574,-0.0009915479458868504,0.0011551774805411696
1761140477298112300,11.0461123046875,0.0007559580844826996,-0.002097654389217496,0.0010506368707865477
1761140477308171000,11.0561708984375,-0.00041450117714703083,0.0024318499490618706,-0.0017800370696932077
1761140477318230300,11.066230224609376,-0.0008624668698757887,-0.0023993439972400665,-0.0007216115482151508
1761140477328289000,11.0762890625,0.0014174652751535177,-0.0014267575461417437,0.0014810889260843396
1761140477338349000,11.08634912109375,-0.0006297610234469175,-0.0022841314785182476,0.000634941621683538
1761140477348408300,11.096408203125,-0.001243619597516954,-0.000015118159353733063,0.0001731495140120387
1761140477358467000,11.106467041015625,-0.0022522080689668655,0.0000919434241950512,-0.0000029159127734601498
1761140477368526300,11.1165263671875,-0.0015949397347867489,0.0002815607003867626,-0.0017592706717550755
1761140477378585000,11.126585205078126,-0.00022653897758573294,0.001997492741793394,-0.002058120211586356
1761140477388645000,11.13664501953125,0.00039317860500887036,-0.0014334579464048147,-0.0003667465643957257
1761140477398704000,11.1467041015625,0.0014676372520625591,0.00014540273696184158,-0.0002597896964289248
1761140477408763100,11.15676318359375,0.0015760278329253197,0.00015046261250972748,-0.0017189355567097664
1761140477418822100,11.166822265625,-0.00018334714695811272,0.0007165293209254742,0.0008206710335798562
1761140477428882200,11.176882080078125,0.00107419746927917,0.001044098287820816,-0.0008707026136107743
1761140477438941200,11.186941162109376,0.001628474099561572,0.000700315460562706,0.002295437967404723
1761140477449000200,11.197000244140625,-0.002101549180224538,-0.0004144837148487568,0.0004623842251021415
1761140477459059200,11.20705908203125,-0.0011745903175324202,0.0014658248983323574,0.0011205666232854128
1761140477469119000,11.217118896484376,-0.001212140778079629,-0.0009206337854266167,0.0012649099808186293
1761140477479178200,11.22717822265625,0.0002779217902570963,0.0003746766597032547,-0.0015215121675282717
1761140477489237000,11.237237060546875,-0.0009284901898354292,0.0014524580910801888,-0.000798996421508491
1761140477499296300,11.247296142578126,0.0014238811563700438,0.0011689048260450363,-0.00043607852421700954
1761140477509356000,11.25735595703125,0.0007000339683145285,0.001494342926889658,0.00003423576708883047
1761140477519415000,11.2674150390625,0.0011565457098186016,0.0008575078099966049,-0.0019451832631602883
1761140477529474000,11.27747412109375,0.00004574126796796918,-0.002140945056453347,0.0005326217506080866
1761140477539533000,11.287532958984375,0.0013652555644512177,0.001251128502190113,0.0005481077241711318
1761140477549592000,11.297592041015625,0.0013447492383420467,-0.00012119859457015991,-0.0002761406358331442
1761140477559652000,11.307652099609374,-0.0009240164654329419,-0.002506272867321968,-0.000570179894566536
1761140477569711000,11.317711181640625,-0.000971953384578228,0.00043438980355858803,0.0007046753307804465
1761140477579770000,11.32777001953125,-0.0024224454537034035,-0.0006965333595871925,0.0003057718859054148
1761140477589829000,11.3378291015625,0.0013920001219958067,0.00014129700139164925,-0.001130470889620483
1761140477599889200,11.34788916015625,-0.0009274596814066172,0.0010293168015778065,-0.001292581669986248
1761140477609948200,11.3579482421875,0.00032316078431904316,0.00046605849638581276,-0.00015514553524553776
1761140477620007000,11.3680068359375,0.0009605298400856555,0.00011526281014084816,0.0021099806763231754
1761140477630066200,11.378066162109375,-0.0015849195187911391,-0.0021617398597300053,-0.002490363549441099
1761140477640126200,11.388126220703125,0.0005081798881292343,0.0013866233639419079,-0.0028495686128735542
1761140477650185200,11.398185302734374,-0.002637279685586691,0.00008300598710775375,-0.000498796405736357
1761140477660244200,11.408244140625,-0.0020060325041413307,0.001298233401030302,-0.000991380074992776
1761140477670303200,11.41830322265625,0.0014630010118708014,-0.00012069894000887871,-0.001408697571605444
1761140477680362200,11.4283623046875,0.0016283807344734669,-0.0005542715080082417,-0.0017683738842606544
1761140477690422000,11.438422119140625,0.00045099720591679215,-0.0010733217932283878,-0.0015723654069006443
1761140477700481300,11.448481201171875,0.0001827813102863729,-0.001977476291358471,-0.0026353918947279453
1761140477710540000,11.4585400390625,-0.0004289468051865697,0.0026577552780508995,-0.001644163392484188
1761140477720599300,11.468599365234375,0.0004508832935243845,-0.0007590232416987419,0.002443123608827591
1761140477730659300,11.478659423828125,0.0012948390794917941,-0.0008543645963072777,0.00004175130743533373
1761140477740718000,11.488718017578124,0.00028852326795458794,0.0008534183725714684,0.0013500493951141834
1761140477750777300,11.49877734375,0.00021235685562714934,-0.0011048042215406895,-0.00047608022578060627
1761140477760836000,11.508836181640625,-0.0015938258729875088,-0.0013498608022928238,0.0008695294382050633
1761140477770896100,11.518896240234374,-0.0012454844545572996,-0.0001066969707608223,0.0005052089691162109
1761140477780955100,11.528955078125,0.00038436480099335313,0.0011386778205633163,-0.0009215643513016403
1761140477791014100,11.53901416015625,0.002299443818628788,0.0017701131291687489,-0.0006613735458813608
1761140477801073200,11.5490732421875,0.0022194809280335903,-0.00048460159450769424,-0.0006118915043771267
1761140477811132200,11.559132080078125,0.00019867427181452513,0.0009604296647012234,0.0011876063654199243
1761140477821192000,11.56919189453125,0.0009866992477327585,-0.001322516705840826,-0.0004671015194617212
1761140477831251200,11.579251220703124,0.0010479518678039312,0.0005329074338078499,0.0004831143014598638
1761140477841310000,11.58931005859375,0.0010850458638742566,0.001108463853597641,-0.0018067073542624712
1761140477851369200,11.599369140625,0.002243520924821496,0.0006482694298028946,0.002401087200269103
1761140477861429200,11.60942919921875,0.00001578172668814659,0.0018473966047167778,0.000017437967471778393
1761140477871488300,11.61948828125,0.0010584092233330011,-0.00008579157292842865,-0.002384467050433159
