time,seconds_elapsed,z,y,x
1761140441189088800,0.0410888671875,0.038788288077712056,-0.002815495812147856,0.0026045564752072096
1761140441199148800,0.051148681640625,0.07305413029491901,0.02138493426358327,0.012159324813960119
1761140441209208000,0.0612080078125,0.035191724890470504,0.017325630669109523,-0.007959471104480326
1761140441219266800,0.071266845703125,0.01933130793571472,-0.003545417521893978,-0.010976846164278685
1761140441229326800,0.081326904296875,0.05629354963004589,-0.006465049561951309,-0.008714371991856023
1761140441239385900,0.0913857421875,0.040996027255058284,-0.000010630991868674755,0.018541043474012985
1761140441249446000,0.10144580078125,0.05748188263177871,0.0040589748009108,0.010618515979591757
1761140441259505200,0.111505126953125,0.06204232241511345,-0.004160553745552897,0.00120675457441248
1761140441269565000,0.12156494140625,0.03806348093450069,-0.0029196685726754364,-0.013853917704243213
1761140441279624000,0.1316240234375,0.05052139596939086,0.005744863794930279,-0.006624843233544379
1761140441289683000,0.141682861328125,0.04338672178387642,-0.003548760256450623,0.00831558193261735
1761140441299743000,0.151742919921875,0.03499474101364612,0.0004377520964480936,0.013555354882776736
1761140441309801700,0.1618017578125,0.0517354479342699,0.007139587822649627,0.01344172930731438
1761140441319862000,0.171862060546875,0.04092939175963402,-0.00012963599534705281,-0.002672735473746434
1761140441329921000,0.181921142578125,0.04989888015687465,0.0007416669464670122,0.00611252806354314
1761140441339979800,0.191979736328125,0.05467968469262123,-0.0010843429042957722,-0.0005632507727947086
1761140441350040000,0.2020400390625,0.05109364289939403,0.006110884095728397,0.012641354443551972
1761140441360098800,0.212098876953125,0.05813888523578643,-0.008101582988910377,-0.0055018579524476075
1761140441370158800,0.222158935546875,0.05154664736390113,-0.011238821568712592,0.004293112350348383
1761140441380218000,0.232218017578125,0.045704351076483726,-0.0033961452443152665,-0.001978524398198351
1761140441390276900,0.24227685546875,0.02909457705914974,-0.0005860014607198536,0.0026269692364148793
1761140441400337000,0.2523369140625,0.03418459367454052,-0.007078596616722643,-0.00633540443344973
1761140441410396000,0.26239599609375,0.044507834768295285,0.0002025185684673488,0.005004557688487694
1761140441420456000,0.2724560546875,0.05348375290632248,0.001408971748780459,-0.005706458880146965
1761140441430514700,0.2825146484375,0.050340194183588025,-0.009953695395309478,-0.008510255121346563
1761140441440575000,0.292574951171875,0.04584405180811882,-0.003182484227325767,-0.0118614743785467
1761140441450634000,0.302634033203125,0.04164250846505165,0.0022349925104528665,0.0028631252130027858
1761140441460693000,0.31269287109375,0.03520809150338173,-0.0062040240055881435,0.006869118584506213
1761140441470753000,0.3227529296875,0.032813889843225474,0.003047715399134904,0.0016374741418752818
1761140441480811800,0.332811767578125,0.061841831406950945,0.0052923707870766515,-0.0011605225462000817
1761140441490871800,0.342871826171875,0.019942717832326887,0.0019458733707666397,-0.004032333389157429
1761140441500931000,0.35293115234375,0.046429742741584776,0.006697634475119412,0.009240551290428266
1761140441510990800,0.362990966796875,0.04747136074900627,0.006686912151705473,-0.004947238010680303
1761140441521049900,0.3730498046875,0.0576478868484497,0.001706657787412405,0.004185268061701208
1761140441531108900,0.38310888671875,0.04492752148509025,0.0019059249528683721,0.010154743525898083
1761140441541169000,0.3931689453125,0.03175356713533401,-0.0008150792425498366,0.007271991163818165
1761140441551228000,0.403227783203125,0.034299744486808774,-0.003193736273702234,0.00791578722638078
1761140441561288000,0.413287841796875,0.05270750783681869,0.008647453368641436,0.019271019982686266
1761140441571347000,0.423346923828125,0.04747252979278564,-0.0019184556408785283,0.0015612762336619198
1761140441581406000,0.433406005859375,0.03594692717194557,-0.004481894654408097,-0.008268463988415896
1761140441591466000,0.443466064453125,0.03415536758005619,0.008245083112828433,0.0011910272823181002
1761140441601524700,0.453524658203125,0.041937107497453684,0.0018478563563898204,-0.000902775792311877
1761140441611585000,0.4635849609375,0.024725860455632208,0.001735756017733365,0.0033059827428311107
1761140441621644000,0.47364404296875,0.03774257841706276,-0.00673833181168884,0.006642342357616871
1761140441631702800,0.483702880859375,0.055094110712409015,0.004861486822832375,0.012324205652624367
1761140441641763000,0.49376318359375,0.04671206681430339,0.015699490772001445,0.0012731891404371709
1761140441651821800,0.50382177734375,0.03294248465895652,0.0016554025242105125,-0.009185953292669727
1761140441661881900,0.5138818359375,0.0538923337072134,0.0029197416379116476,-0.004771516117593274
1761140441671940900,0.52394091796875,0.0450689757823944,0.0023715149043127895,0.008062100361892952
1761140441682001000,0.5340009765625,0.03204933521151542,-0.00437693644259125,-0.003976073157275095
1761140441692060000,0.544059814453125,0.041623219242691994,-0.005714797450229525,-0.0035042543944437056
1761140441702119000,0.554118896484375,0.047153380841016765,-0.002842803944181651,0.0018822792157996446
1761140441712179000,0.564178955078125,0.050294016954302787,-0.009337408394180237,-0.010115516627207399
1761140441722238000,0.574238037109375,0.03803133223056793,0.01126804766319692,0.003006141279730946
1761140441732298000,0.584298095703125,0.03025485301017761,0.0032540150935761627,0.0031039756310172377
1761140441742357000,0.59435693359375,0.05165478391349315,0.0027426132390275595,-0.007434460849687457
1761140441752416800,0.604416748046875,0.041627895417809486,-0.007146565552707761,-0.00957550059952773
1761140441762476000,0.61447607421875,0.046267245656251905,0.001995466399844736,0.0013358699799515307
1761140441772534800,0.62453466796875,0.0320505042552948,-0.012193236216716467,-0.01240172786824405
1761140441782594800,0.6345947265625,0.04028115698397159,0.005277629875671118,-0.011837125388579442
1761140441792654000,0.644654052734375,0.04387245947420597,0.0022578253967687487,-0.005316984638525173
1761140441802713900,0.6547138671875,0.049260582253336904,0.001987118696607649,-0.0009285678206942975
1761140441812772900,0.66477294921875,0.04821428807079792,-0.004932798493374139,-0.005309057060396298
1761140441822833000,0.6748330078125,0.045074821001291274,-0.006410999553464353,-0.0165921744285617
1761140441832893000,0.684892822265625,0.04163081802725792,-0.009769589266367257,-0.009703483493905514
1761140441842952000,0.694951904296875,0.05240531001985073,-0.015979001833125946,0.0011633172914851456
1761140441853012000,0.705011962890625,0.03953530705273151,0.004109261949732899,-0.011487700029555707
1761140441863071000,0.715071044921875,0.03385141619741917,-0.01115085102431476,-0.009536428964463993
1761140441873131000,0.725131103515625,0.03833879074454307,-0.002484418960567564,-0.009183048949530348
1761140441883190000,0.73518994140625,0.03504559441804886,0.0020924970335327087,0.004592588487267494
1761140441893249000,0.7452490234375,0.049260582253336904,-0.003041650984529406,-0.01069080489766784
1761140441903308800,0.755308837890625,0.04880933135449886,-0.004565590882487595,0.004554073974629863
1761140441913368000,0.7653681640625,0.03159866883456707,-0.009553718025982379,0.01301193218845874
1761140441923427800,0.775427734375,0.04401449829339981,-0.005636708979029208,0.007492849106574431
1761140441933486800,0.78548681640625,0.041620296633243556,0.005185933004226535,0.0014679993264842778
1761140441943545900,0.7955458984375,0.0462543861746788,0.0025600780126638707,0.008371020180592314
1761140441953606000,0.80560595703125,0.052989831909537315,0.01194583732690662,-0.0063173847195692355
1761140441963665000,0.815664794921875,0.037730303457379336,0.0036598376818001268,-0.00932305107526481
1761140441973725000,0.825724853515625,0.032494156369566915,-0.009916980114113539,-0.008181087099062278
1761140441983784000,0.835783935546875,0.03907528832554817,0.00159037446398288,0.0081604735692963
1761140441993844000,0.845843994140625,0.052688218614459034,0.0018492993948049843,-0.012406449709134175
1761140442003903000,0.855903076171875,0.061217562028765674,0.009828224118426442,0.009380489484081045
1761140442013962000,0.8659619140625,0.039973113948106764,-0.002449749505985528,0.0004160608544480055
1761140442024021800,0.876021728515625,0.05239478862583637,-0.011416132630687206,0.01260852988618426
1761140442034081000,0.8860810546875,0.06077800156772136,0.008501213298365473,-0.001061172091262415
1761140442044140800,0.896140869140625,0.04865852470695972,0.006702475047018378,-0.0076597757718525825
1761140442054199800,0.90619970703125,0.04222352322340012,-0.004834288288652897,0.004370771563285961
1761140442064258800,0.9162587890625,0.04251987582147121,0.0030403540765866635,-0.0038173937305342404
1761140442074318800,0.92631884765625,0.034440029740333555,0.0057318399165757,0.008513634388521313
1761140442084378000,0.936378173828125,0.024113866037130356,-0.004255301090609282,0.016342665780056265
1761140442094438000,0.94643798828125,0.042516368690133095,0.0017148593601770698,-0.0036033125884365287
1761140442104497000,0.956496826171875,0.047749593168497084,-0.006940101461485028,0.001944485131278634
1761140442114557000,0.966556884765625,0.03967208517491817,-0.01786750072715804,-0.0055356232247315345
1761140442124616000,0.976615966796875,0.03622983576655388,0.005273099831026047,0.016143307283055037
1761140442134675000,0.986675048828125,0.03188742264807224,0.0026561953308992087,0.00667061860403046
1761140442144735000,0.99673486328125,0.05837094042599201,0.011475297205708921,0.0004405377085786313
1761140442154794000,1.0067939453125,0.05103694427609443,0.0020952187135815617,-0.009006358942063525
1761140442164853800,1.016853759765625,0.01212824468910694,-0.001411711695138365,0.0036998865643981843
1761140442174913000,1.0269130859375,0.029639935982227323,-0.004144351529423147,-0.010390862969867885
1761140442184971800,1.0369716796875,0.07258300565183162,0.001848130351025611,0.003168455701973289
1761140442195031800,1.04703173828125,0.039511926177144045,0.003438504815008491,0.006405866720620542
1761140442205091000,1.057091064453125,0.032927871611714364,-0.003218304459378123,0.0025118275573011487
1761140442215150800,1.06715087890625,0.06929039384722709,0.01109966882634908,0.002036191135877743
1761140442225209900,1.0772099609375,0.03846738556027412,0.0037312224175781008,-0.00374978098757565
1761140442235270100,1.087270263671875,0.039815293037891386,-0.0018702691175974905,0.008531507971929387
1761140442245329000,1.097328857421875,0.027546178573369978,0.013026819230336694,-0.004189304916001856
1761140442255388000,1.107387939453125,0.04400748403072357,-0.0036353973602876065,-0.001733755856892094
1761140442265448000,1.117447998046875,0.042810967722535134,-0.006269289527833462,-0.002761747197760269
1761140442275507000,1.1275068359375,0.033380291554331774,0.011318681871891022,-0.0012456435463856904
1761140442285566700,1.137566650390625,0.045048517516255375,0.009523487284500151,0.0020850900452118364
1761140442295626000,1.1476259765625,0.03307926278114319,-0.0057231268871575595,-0.006030996393086388
1761140442305684700,1.157684814453125,0.04026362132728099,0.007943689013458788,-0.0182802188470494
1761140442315744800,1.167744873046875,0.043107904842495916,0.00933748145941645,0.004498772723972797
1761140442325804000,1.177803955078125,0.026648352950811385,0.004998411075491458,-0.0027538196196313946
1761140442335863800,1.18786376953125,0.04490472513139248,0.018468827621173113,0.00005714614787138998
1761140442345923000,1.197923095703125,0.05313303977251053,0.000016202216129750014,-0.016278916361462323
1761140442355983000,1.207983154296875,0.03981821564733982,-0.00037575624352321026,-0.0046035665390081705
1761140442366041900,1.218041748046875,0.04759995556473732,0.0021630963180214167,0.0006751410488970577
1761140442376101000,1.22810107421875,0.05642506705522537,-0.01035829414082691,0.005766609835857525
1761140442386161000,1.238160888671875,0.03712473877966404,0.01338511288240552,-0.002543747932370752
1761140442396220000,1.248219970703125,0.049994741746783256,0.019742957476526497,-0.0009198273918125778
1761140442406280000,1.258280029296875,0.043111411973834037,0.00010148761309683323,0.009811135986307635
1761140442416339000,1.2683388671875,0.05358896684646606,0.009953549264837056,0.008004963347176089
1761140442426398000,1.27839794921875,0.04984978031814098,-0.00023799174064770338,-0.004669014724344014
1761140442436458000,1.2884580078125,0.0561316370666027,-0.013386939513310788,0.01490498852659948
1761140442446517000,1.29851708984375,0.03727846803665161,0.004947685535252094,-0.01050917385360226
1761140442456576800,1.30857666015625,0.043859599992632864,0.004047594890370965,0.01392093679215759
1761140442466636000,1.318635986328125,0.04266483725011348,0.0023899456101469695,0.00388628511512652
1761140442476694800,1.32869482421875,0.041619127589464185,-0.00039404081888496875,0.007218626141920685
1761140442486754800,1.3387548828125,0.043861938080191606,-0.01049878032375127,0.006839088772423565
1761140442496814000,1.34881396484375,0.04431085089147091,-0.011106884018424898,-0.0031980562557931986
1761140442506873900,1.358873779296875,0.04012158250808716,-0.0015427359299734233,0.0024976437683217226
1761140442516932900,1.368932861328125,0.04042085771560669,0.001850559770129621,0.013623433416616171
1761140442526993200,1.3789931640625,0.04655658399164676,0.009429379260260612,0.018245823387103153
1761140442537052000,1.389052001953125,0.03847498434484005,-0.0006510843198746443,0.003954226651648059
1761140442547111000,1.39911083984375,0.03907528832554817,0.008068630567379295,-0.0162458452089224
1761140442557171000,1.4091708984375,0.04520692294836044,-0.003640694589912891,-0.0061275521027389914
1761140442567230000,1.41922998046875,0.03936754927039146,0.005187759635131806,0.015153620392270386
1761140442577289700,1.429289794921875,0.04295826723873615,0.02368407805142924,0.012728347740415483
1761140442587349000,1.439348876953125,0.047452071526646614,0.01092429399313405,-0.0022393490251619366
1761140442597407700,1.44940771484375,0.047452071526646614,-0.005619885708391666,0.00003384747067466378
1761140442607467800,1.4594677734375,0.036830139747262,-0.0021889614116400477,-0.005456539239687845
1761140442617527000,1.469527099609375,0.035633038917183876,-0.001776617751084268,0.0030033465344458817
1761140442627586800,1.4795869140625,0.045509120765328405,0.01434254147140309,-0.0013767499796114861
1761140442637646000,1.48964599609375,0.043263972187042234,-0.006693067897856235,0.002716839476954192
1761140442647704800,1.499704833984375,0.03922317236363888,0.014046426335349678,0.0023558150116819885
1761140442657764900,1.509764892578125,0.04281330581009388,-0.010662866577971726,0.013410320388898252
1761140442667824000,1.51982421875,0.04356032478511333,-0.002793119583558291,0.009893717969534917
1761140442677884000,1.5298837890625,0.04984335057735443,-0.010742873011622578,-0.023276584095926953
1761140442687943000,1.53994287109375,0.042213001829385755,0.0013935549839399755,-0.003375979239121079
1761140442698002700,1.550002685546875,0.043859599992632864,-0.0016626542489044367,0.003871370673784986
1761140442708062000,1.56006201171875,0.03203998286128044,0.008100066885259003,0.01003222225792706
1761140442718120700,1.57012060546875,0.051344402790069577,0.0057352739826776085,0.022771310588065533
1761140442728181000,1.580180908203125,0.04969897367060184,-0.009850801276415586,0.0034735852615442125
1761140442738240000,1.590239990234375,0.03847206173539162,-0.001938146722037345,-0.0136109666606877
1761140442748299800,1.6002998046875,0.046830140236020085,-0.0034375914995558557,-0.004039804309559985
1761140442758359000,1.610359130859375,0.039487960779666896,0.005173365783598274,-0.001387746297661215
1761140442768417800,1.620417724609375,0.06521276914477347,-0.0015367080479860304,0.0006049618895165622
1761140442778477800,1.630477783203125,0.03377542835175991,-0.014117372679710386,-0.00034984548413194715
1761140442788537000,1.640537109375,0.05666296746432781,-0.005061283711250871,-0.002450754152983427
1761140442798596900,1.650596923828125,0.03914893808364868,0.003883928761258721,-0.007441210250882431
1761140442808656000,1.66065576171875,0.05829787518978118,0.009532620439026505,0.004836827305611223
1761140442818715000,1.67071484375,0.04961889417171478,0.005850497860182076,0.021653028881549834
1761140442828774400,1.6807744140625,0.03660217621028423,0.020129618706554175,-0.0028454616921488192
1761140442838833400,1.69083349609375,0.049024435409903526,-0.005091002996079623,-0.0003469046083744615
1761140442848893400,1.7008935546875,0.03301730346083641,-0.012076861561741679,0.017588482856377957
1761140442858952400,1.710952392578125,0.0381067355543375,0.008368545095715671,0.007061992541793734
1761140442869011500,1.721011474609375,0.04154781591892242,0.0015672493167221545,0.0011883695343509317
1761140442879071500,1.731071533203125,0.038107320076227184,-0.013835304335318505,-0.013033641696767882
1761140442889130200,1.741130126953125,0.05741232452690601,-0.0007382511466741561,-0.0041834322976414115
1761140442899190500,1.7511904296875,0.042893969830870626,-0.008008388280123471,-0.008009529924439266
1761140442909249300,1.761249267578125,0.0454354710072279,-0.002676160406693816,-0.011809926854399964
1761140442919309300,1.771309326171875,0.04962357034683227,-0.008158391210064292,-0.006690391883580013
1761140442929368600,1.78136865234375,0.04498363558650016,0.015641440441831946,0.0009922533072065562
1761140442939427300,1.79142724609375,0.04243921180069447,0.0017528167503885923,0.0009624426908325404
1761140442949487400,1.8014873046875,0.039296237599849695,0.0016452829889953135,-0.003825750566925853
1761140442959546400,1.81154638671875,0.03705167354345321,0.0014287358951754867,-0.0007854969550389797
1761140442969606400,1.8216064453125,0.028527590826153755,-0.0030518983839079735,0.002796562782814726
1761140442979665400,1.83166552734375,0.04080196598768234,0.005222502154950052,0.011268029396887869
1761140442989724400,1.841724365234375,0.04843699091076851,-0.00011666691591963171,0.003079544442659244
1761140442999784400,1.851784423828125,0.03153378690481186,-0.004899645142443478,-0.012834164468757807
1761140443009843500,1.861843505859375,0.03722410750091076,-0.0069490154203027486,-0.004064646489871666
1761140443019903500,1.871903564453125,0.037084991291165346,0.004333627023827284,-0.011712476095603778
1761140443029962500,1.88196240234375,0.06283668766319751,0.011799304995685815,0.016502139791240916
1761140443040021500,1.892021484375,0.061197103762626645,-0.00673239526124671,-0.0015887487624771893
1761140443050081500,1.90208154296875,0.0326169059664011,0.007382292271032929,0.0018762969995848834
1761140443060140300,1.912140380859375,0.04189560644328594,-0.0032877529663965102,0.005184608696820214
1761140443070200300,1.922200439453125,0.03890051628053188,0.007455649768188595,0.0012488218841608613
1761140443080259300,1.93225927734375,0.054013914260268206,-0.0022032091327011585,0.02207993079042062
1761140443090318300,1.942318359375,0.06164660109579563,0.009117829093057661,-0.005476933573745191
1761140443100378600,1.952378662109375,0.038306057518720626,-0.003902943988982588,0.008839076083758845
1761140443110437400,1.962437255859375,0.02468786653280258,-0.0037064715688116846,0.0048824291461613024
1761140443120497400,1.972497314453125,0.02379120995402336,-0.0020983422524295746,0.0001541585152503103
1761140443130556400,1.982556396484375,0.04444295283854007,0.003025467034708708,-0.009574349822057411
1761140443140616400,1.992616455078125,0.06479308242797852,0.000776939189247787,0.0022907686851453037
1761140443150675500,2.002675537109375,0.04414367763102054,-0.005382642886415124,-0.007718100096657872
1761140443160734500,2.012734375,0.04190145166218281,-0.0014485731068067252,-0.016024795469921083
1761140443170794500,2.02279443359375,0.04519640155434608,-0.011500979636237025,0.011203850720031187
1761140443180853200,2.032853271484375,0.0454962612837553,-0.00015442337673157453,-0.006168203773535788
1761140443190913500,2.04291357421875,0.03891045315265655,-0.004008121396508068,-0.0005664108442608267
1761140443200972300,2.05297216796875,0.053124856466054915,0.004086063737235963,0.01144046335434541
1761140443211031600,2.063031494140625,0.04609247361123561,0.0005328465013764798,-0.0023439145113341507
1761140443221091600,2.073091552734375,0.04609072004556656,0.005206208607275039,-0.0005383172609377652
1761140443231150300,2.083150390625,0.061952890565991396,0.010226137394830585,0.01956532675414346
1761140443241210400,2.09321044921875,0.05955810438394546,-0.014286957092955707,0.0029392774554435164
1761140443251269400,2.103269287109375,0.03980301807820797,0.001508559665735811,0.012525180717976763
1761140443261328400,2.113328369140625,0.050128597259521485,0.0076052508393302555,0.005328528945846483
1761140443271388400,2.123388427734375,0.029031448695063588,0.009864902867004274,0.008134544543595985
1761140443281447400,2.133447509765625,0.03262216666340828,0.010191595804411917,-0.014803930171765387
1761140443291507500,2.143507568359375,0.04309504536092281,0.002485387074947357,-0.0020977211979217826
1761140443301566500,2.15356640625,0.07077800205647945,-0.00748578917812556,0.008017128709005191
1761140443311625500,2.16362548828125,0.021845921105146406,-0.007633947210852057,0.009275522139109671
1761140443321685200,2.173685302734375,0.06568506283164025,-0.012477240789867937,0.005608880257187411
1761140443331744500,2.18374462890625,0.031417467048764226,0.030966782405506817,-0.019630473545379935
1761140443341804500,2.193804443359375,0.0023918635725975034,-0.014449636841379105,0.01692789092264138
1761140443351863300,2.20386328125,0.07706219689249992,0.005836688530538231,0.012556827098410576
1761140443361922600,2.213922607421875,0.04892915834188461,-0.014168591410294175,-0.005126083442615345
1761140443371982300,2.223982421875,0.02887713491618633,0.01156144111920148,-0.01268012468451634
1761140443382041300,2.234041259765625,0.05790683004558086,0.012986359355784951,-0.008907994867814704
1761140443392101600,2.2441015625,0.0025385785669088364,0.009089753776043654,0.011707279330678283
1761140443402160400,2.254160400390625,0.04398527219891548,0.0008718143984675407,-0.012082396253384649
1761140443412220400,2.264220458984375,0.04114274224936962,-0.003887910816632211,-0.004506398908002302
1761140443422279400,2.274279541015625,0.0317149886906147,0.0027051673054695126,-0.007374967481102794
1761140443432338400,2.28433837890625,0.0460801986515522,-0.011115158656425773,-0.0003003803192172199
1761140443442398200,2.294398193359375,0.04727729948163032,0.005674830766022205,0.0027308406028430906
1761140443452457500,2.30445751953125,0.05700199016034603,-0.001249379006586969,0.013532120137661694
1761140443462517500,2.314517578125,0.044431262400746345,0.010519110725726932,-0.005102492504473775
1761140443472576300,2.324576171875,0.03245850053429603,0.000013096943590790033,0.0005878554910887032
1761140443482635500,2.334635498046875,0.05819207672774791,0.0027440380111336707,0.009942489014705642
1761140443492695300,2.3446953125,0.03170563634037971,0.006700557084567844,-0.0004891808895859867
1761140443502754600,2.354754638671875,0.03470131102502346,-0.006289199804700911,-0.009651250983169301
1761140443512814600,2.364814697265625,0.06597615473270416,0.0065472844853065905,0.016842934319237245
1761140443522873300,2.374873291015625,0.014951485416293143,-0.0011886252626776696,-0.0030698724320158363
1761140443532932600,2.3849326171875,0.04727262330651283,0.005382094897143542,0.004458595977211371
1761140443542992400,2.394992431640625,0.056251464053988454,-0.0015339863679371772,-0.007318926444929093
1761140443553051400,2.405051513671875,0.03665010700523853,0.012293043329380452,-0.0015623904785141349
1761140443563111400,2.415111328125,0.04398468767702579,-0.009426730645447969,0.009755213681142776
1761140443573170400,2.42517041015625,0.05565583624839782,0.0016947846865281461,0.015320921516884117
1761140443583229200,2.435229248046875,0.041436172237992286,-0.002981719224527478,-0.009021492579113692
1761140443593289500,2.44528955078125,0.03724573481082916,0.0028350407628342507,-0.0036274971816223113
1761140443603348500,2.455348388671875,0.03904313962161541,0.01034735262170434,-0.001402861668402329
1761140443613408300,2.465408203125,0.0466769955009222,-0.0003873370834626257,-0.005243581475596875
1761140443623467500,2.475467529296875,0.035600890213251114,-0.004893270200584083,0.0096561372208409
1761140443633526300,2.4855263671875,0.0345557650744915,0.01154867296917364,0.00318996428088285
1761140443643586300,2.49558642578125,0.03425707438886166,0.0022293299546465276,0.002236609078804031
1761140443653645600,2.5056455078125,0.06283668766319751,0.005652235341724008,0.0019184647740330546
1761140443663705300,2.515705322265625,0.02273205628991127,0.002316277585737407,-0.004176299303956329
1761140443673764400,2.525764404296875,0.04024082497358322,0.0026908465191721916,0.017668416224792597
1761140443683823400,2.5358232421875,0.046676410979032516,0.00932675913600251,-0.011858067711908369
1761140443693883400,2.54588330078125,0.03455634959638119,0.007375515470374375,-0.003032727892557159
1761140443703942700,2.555942626953125,0.045781507965922355,-0.0004824497547000646,-0.00932190029779449
1761140443714002400,2.56600244140625,0.026927754414081573,0.005413969606440514,-0.004956526428833603
1761140443724061400,2.5760615234375,0.03515606905519962,0.005568356450553983,-0.0006586009060498327
1761140443734120400,2.586120361328125,0.04697743975222111,0.012958174440916627,-0.005615903653018176
1761140443744180500,2.596180419921875,0.049969022783637046,0.001245762277394533,0.00960617886558175
1761140443754239200,2.6062392578125,0.04128770367801189,-0.007034812273923307,0.008618008078448473
1761140443764299500,2.616299560546875,0.042784079715609546,0.008550696729589254,-0.0040296299754176285
1761140443774358500,2.626358642578125,0.03410626774132251,0.006211787186935543,0.005482148604979738
1761140443784418300,2.636418212890625,0.052661915129423136,0.0010915946289896965,0.002237549793720245
1761140443794477600,2.6464775390625,0.04458206904828548,0.0007858348817564546,0.0029916104308795183
1761140443804536300,2.656536376953125,0.042485389029979705,-0.0007553849445655941,-0.0034523141446523367
1761140443814596400,2.666596435546875,0.04712240118086338,0.0027996223895810544,-0.005483874771185219
1761140443824655600,2.676655517578125,0.050265375381708145,-0.00843360968856141,-0.008440715282782911
1761140443834715400,2.68671533203125,0.0511602783948183,0.007817231355886906,0.007116636205324903
1761140443844774400,2.6967744140625,0.05086100318729877,-0.0030583646573126315,0.007514375951793045
1761140443854833400,2.70683349609375,0.0299111541390419,0.00031949601164087653,0.0050260571342427285
1761140443864893400,2.7168935546875,0.04218260669112205,-0.016547266707755623,0.003626136341597885
1761140443874952200,2.7269521484375,0.052207157099246976,0.014763707759231328,0.006432900858018547
1761140443885012500,2.737012451171875,0.049664486879110334,-0.0012123531981371343,-0.022092342747421934
1761140443895071500,2.747071533203125,0.042031800043582916,0.006634615708887577,-0.008489321931172161
1761140443905130500,2.757130615234375,0.052504678741097446,-0.001775814033485949,0.007987966546602547
1761140443915190500,2.7671904296875,0.03574585164189339,0.00548550047269091,-0.0010757394727319478
1761140443925249300,2.777249267578125,0.04098433681726456,0.01779609772507101,0.00992644206220284
1761140443935309300,2.787309326171875,0.043076925182342525,0.005453808426484465,0.011464784944849088
1761140443945368600,2.79736865234375,0.04816577275395393,-0.0022360702226869762,-0.0021039591424632815
1761140443955427300,2.80742724609375,0.04352876060307025,-0.002808390217926353,-0.01289831574615091
1761140443965487400,2.8174873046875,0.038739188238978386,0.006861209272686392,0.014644392228499054
1761140443975546400,2.82754638671875,0.039486791735887525,0.009560092967841773,0.002021797284344211
1761140443985606400,2.8376064453125,0.04621814581751823,0.008191964686103165,0.0066677051277365534
1761140443995665400,2.84766552734375,0.046965164792537685,0.0005180690573528409,0.0050793764903675764
1761140444005724400,2.857724365234375,0.05863865145146847,-0.0028963972949422895,-0.008136444239737466
1761140444015784400,2.867784423828125,0.04621814581751823,-0.0030517157208174465,-0.01882110252440907
1761140444025843500,2.877843505859375,0.03604103519618511,0.008725213046278804,0.011725591305503621
1761140444035903500,2.887903564453125,0.042622167152166365,0.00035416546622291204,0.011697890447825193
1761140444045962200,2.897962158203125,0.045613165661692615,0.005349544334411621,0.010225744669185952
1761140444056021500,2.908021484375,0.043219548523426056,0.006933087198808789,0.0018013138009235262
1761140444066081500,2.91808154296875,0.04995324069261551,-0.003515223313029855,-0.017019478196231647
1761140444076140300,2.928140380859375,0.02870294739305973,0.0036923882445320487,-0.0015575499066151678
1761140444086200600,2.93820068359375,0.039326632738113404,0.012161708567291497,-0.0029639552389737218
1761140444096259300,2.94825927734375,0.0459101027816534,0.002794690486136824,-0.0028979499312117695
1761140444106318600,2.958318603515625,0.02690554258227348,0.0036783597191795705,0.015554949468467383
1761140444116378400,2.96837841796875,0.04441372674405575,0.011819726729206741,0.014239135895855725
1761140444126437400,2.978437255859375,0.03618132044970989,0.00623924144944176,-0.018022928750887512
1761140444136497400,2.988497314453125,0.04605740229785442,-0.0012282814196310937,-0.0018239640241488814
1761140444146556400,2.998556396484375,0.045757542568445206,-0.00008599778302013873,0.020130294559989124
1761140444156615400,3.008615478515625,0.048750294643640515,-0.0006780088594183325,-0.003615733678592369
1761140444166675500,3.018675537109375,0.04800269114673138,0.001430525993462652,-0.0035067477456294
1761140444176734500,3.028734375,0.03992401410937309,-0.006382029187306761,-0.008319162129191681
1761140444186794500,3.03879443359375,0.061622635698318474,-0.006917871363367885,-0.011807196041196583
1761140444196853500,3.048853515625,0.045909518259763714,0.00009493000814691186,0.010141984509024768
1761140444206912500,3.05891259765625,0.024960838255286215,0.00004694441426545381,0.008503770581632852
1761140444216972300,3.06897216796875,0.05413900194466114,0.004374561822414398,-0.004496535101113841
1761140444227031600,3.079031494140625,0.03453355324268341,-0.0003850537948310375,0.0004690422838553786
1761140444237091300,3.08909130859375,0.04620236372649669,0.008313837500102818,0.005236201886739581
1761140444247150300,3.099150390625,0.06505845536589622,0.0002857764051295817,-0.0012102434394415467
1761140444257209600,3.109209716796875,0.028698271217942235,0.003937978769745678,0.002413673545606434
1761140444267269400,3.119269287109375,0.04455751912891864,0.014448778324853627,0.010864901089249179
1761140444277328400,3.129328369140625,0.04380523945689201,0.014176117129623888,-0.000911059563467279
1761140444287388400,3.139388427734375,0.03602233049571514,0.007239413201622665,-0.0002809267000760883
1761140444297447400,3.149447509765625,0.04874386490285396,0.001908226507809013,0.0036562300857622175
1761140444307506400,3.15950634765625,0.047696401676535605,-0.008270473282411693,0.006514907452510669
1761140444317566500,3.16956640625,0.03692424777150154,0.0004965696115978062,0.008837496048025787
1761140444327625500,3.17962548828125,0.049044309154152865,-0.006435220679268241,0.012665402039419859
1761140444337685200,3.189685302734375,0.04859188921153545,-0.0032829671934247015,0.0016730843113735318
1761140444347744500,3.19974462890625,0.0343769013762474,-0.0030111827810294927,0.018117676095943898
1761140444357803300,3.20980322265625,0.038116087904572486,0.0055261612766422325,0.005876755679445341
1761140444367863300,3.21986328125,0.05472586192190647,0.010027180756628513,-0.011952011339366434
1761140444377922600,3.229922607421875,0.04634498706758022,-0.00576499326750636,0.0070576634265482425
1761140444387982300,3.239982421875,0.041405777099728584,-0.001248502223752439,0.0036733182178810236
1761140444398041600,3.25004150390625,0.05308160184621811,-0.00434628557600081,0.005788091015303507
1761140444408100400,3.260100341796875,0.048291444960236546,-0.007272822280880063,0.001980488026421517
1761140444418160400,3.270160400390625,0.027491818037629127,0.007895210229232907,0.005362011090340092
1761140444428219400,3.280219482421875,0.043351650470495225,0.008869827415049075,-0.00246414335751906
1761140444438279400,3.290279541015625,0.046644846796989436,-0.014276527030486612,0.0007756605476140976
1761140444448338400,3.30033837890625,0.0345253699362278,-0.017003047651238737,-0.012043041490530594
1761140444458397400,3.3103974609375,0.04529635479748249,-0.0008530183664523064,-0.0026849465013481675
1761140444468457500,3.32045751953125,0.03931085064709186,0.005560830731224269,0.0023804927952121944
1761140444478516200,3.33051611328125,0.042453824847936625,-0.0034125483898445963,-0.0029295049801003185
1761140444488576500,3.340576416015625,0.055474049940705296,0.0016444062061607837,0.012147415180457755
1761140444498635500,3.350635498046875,0.04170739039480686,0.0030045338445343077,0.004095534818479791
1761140444508694500,3.360694580078125,0.04544599240124225,0.003875160932913422,0.008859433885198087
1761140444518754600,3.370754638671875,0.04619301137626171,0.0030263986164703965,0.0047777175295166665
1761140444528813300,3.380813232421875,0.050532501885294914,-0.004577920641098171,0.010362942916480824
1761140444538873300,3.390873291015625,0.05262684381604194,0.0023678799088113008,-0.005878545777732506
1761140444548932400,3.400932373046875,0.0481365466594696,0.0032842275687493382,0.004051366883190349
1761140444558991400,3.410991455078125,0.0638479105323553,0.012598675212450325,0.010006548960553481
1761140444569051400,3.421051513671875,0.054417818886041636,-0.009135309950821102,-0.002219868006557226
1761140444579110400,3.4311103515625,0.04349193572402,0.002340681374631822,-0.0069117430166807025
1761140444589170400,3.44117041015625,0.05770692355930805,0.005948441809322685,-0.007199528715806081
1761140444599229400,3.4512294921875,0.04648351875543594,0.009547562279831617,-0.006377170349098742
1761140444609288400,3.461288330078125,0.04424012374281883,0.007683174913749098,0.009911765082878991
1761140444619348500,3.471348388671875,0.04873158994317055,0.0005517155986279249,0.012844137873500585
1761140444629407500,3.481407470703125,0.04573883786797523,-0.0061180992878042155,0.0066821903108153485
1761140444639467500,3.491467529296875,0.037657822743058206,0.004165047257579863,-0.0132249904172495
1761140444649526300,3.5015263671875,0.03825520411431789,0.004171769259311259,-0.01242960225585848
1761140444659585500,3.51158544921875,0.04333996003270149,-0.009907810426969081,-0.010680466166744009
1761140444669645300,3.521645263671875,0.0403460389137268,-0.0023723734208382667,0.0031732232086360453
1761140444679704300,3.531704345703125,0.04438625421524048,0.00030375045323744414,0.00016052432395517824
1761140444689764600,3.5417646484375,0.04543430196344852,-0.0004475611044093966,-0.0005428564387373626
1761140444699823400,3.5518232421875,0.040946342894434926,0.002808134489599615,0.009256826571794226
1761140444709882600,3.561882568359375,0.039298575687408445,0.01064419841011986,0.000982024174137041
1761140444719942400,3.5719423828125,0.037654315611720085,0.002641819745674729,0.0009802066763862968
1761140444730001400,3.58200146484375,0.03481237018406391,-0.004161978517659008,-0.0015273739640600979
1761140444740061400,3.5920615234375,0.04962532391250133,-0.0020957484365440905,0.0029054939168505368
1761140444750120400,3.602120361328125,0.039001054045557974,-0.010580010600108653,-0.009837795664370059
1761140444760179500,3.612179443359375,0.039598435416817665,-0.009762447139527649,0.007974741738848387
1761140444770239200,3.6222392578125,0.0485766916424036,-0.004468907308671623,-0.001101732430513948
1761140444780298500,3.632298583984375,0.043190322428941726,0.0034225035282783207,0.0008689557211007923
1761140444790358300,3.642358154296875,0.0559095187485218,-0.012037424600496888,-0.005366605067066848
1761140444800417500,3.65241748046875,0.050824178308248515,0.0008521050509996712,-0.002665903874160722
1761140444810476300,3.662476318359375,0.04274374770522117,-0.007022793042566627,0.008535864486638456
1761140444820535800,3.672535888671875,0.03960077350437641,0.009205616974364965,-0.0084443502782844
1761140444830595000,3.682594970703125,0.05651040725111961,0.0006954531845636665,0.006410232368484139
1761140444840654800,3.69265478515625,0.03496259230971336,0.001827032764069736,0.00006317402985878289
1761140444850713900,3.7027138671875,0.0457359152585268,-0.007582618882413953,-0.0059718135517556215
1761140444860772900,3.71277294921875,0.0581534982830286,0.005592595842666924,0.007265278295241296
1761140444870833000,3.7228330078125,0.04902794254124164,-0.0002983070931397378,-0.004732901140255853
1761140444880892200,3.73289208984375,0.040946342894434926,0.007742631749715656,0.013307389737386256
1761140444890952000,3.742951904296875,0.04558510861098766,-0.003969707348570228,-0.006345889294845983
1761140444901011000,3.753010986328125,0.04932955583631992,-0.00403075335342437,-0.003553390765795484
1761140444911070000,3.763070068359375,0.041399931880831714,-0.010416161807905881,0.0008760795816313475
1761140444921130000,3.7731298828125,0.03855798645317554,0.005965630406141281,0.007015961442980915
1761140444931188700,3.783188720703125,0.05561608875989914,0.0010787168811075389,0.0054351585249416525
1761140444941248800,3.793248779296875,0.04454465964734554,-0.00711564069148153,-0.020505694610485806
1761140444951308000,3.80330810546875,0.043348143339157104,-0.010312938895449042,-0.012756112530175596
1761140444961366800,3.81336669921875,0.04290039957165718,0.01422169157071039,0.006510213011084124
1761140444971427000,3.823427001953125,0.04349602737724781,0.015016148150339722,0.0023664186040870845
1761140444981485800,3.83348583984375,0.05172726462781429,0.0020961137627251445,0.0007519782779272646
1761140444991545900,3.8435458984375,0.04843640638887882,0.004483776084240526,0.008624163824599235
1761140445001605000,3.853605224609375,0.04439736013114452,0.010400763309374452,-0.0007725004761479794
1761140445011664000,3.863663818359375,0.056223407003283495,-0.0005125526320189237,-0.007251121905725449
1761140445021724000,3.873723876953125,0.033927988564968106,0.0094279544881545,-0.00927680078074336
1761140445031783000,3.883782958984375,0.03677051851451397,0.004289532153774053,0.0030859741834457963
1761140445041843000,3.893843017578125,0.04529810836315155,-0.00007880085725337266,0.009841595056653022
1761140445051901700,3.903901611328125,0.04050795147716999,0.006892718655802309,-0.007975773785309866
1761140445061961000,3.9139609375,0.043802901369333264,0.014898549652658402,-0.005422353842295706
1761140445072021000,3.92402099609375,0.043503041639924044,0.009062354312464594,0.0008242763291578739
1761140445082080000,3.934080078125,0.04290566026866436,0.001967464148066938,-0.01260241980580613
1761140445092140000,3.94414013671875,0.04484978007376194,-0.0031948870511725545,-0.014249748621415346
1761140445102198800,3.95419873046875,0.04859364277720451,0.008790569900069385,0.005688037307467311
1761140445112258000,3.964258056640625,0.034379823985695834,-0.0039084238816983995,0.014324229496577754
1761140445122318000,3.974318115234375,0.049346506971120835,0.006486293279379606,-0.022599241956789046
1761140445132376800,3.984376953125,0.03453355324268341,0.003610482114739716,-0.010093295662244782
1761140445142436900,3.994436767578125,0.055333764687180514,-0.0002088204450905323,-0.006921460693096741
1761140445152495900,4.004495849609375,0.04800269114673138,-0.0005227086998522281,0.00193713294188492
1761140445162555000,4.014554931640625,0.034984219619631766,0.0007607004404999316,0.009825812965631484
1761140445172615000,4.024614990234375,0.042616906455159184,0.01121936794957146,0.00009122194740921258
1761140445182674000,4.034673828125,0.05114683439135551,0.008976411328371613,-0.013058328613452613
1761140445192734000,4.04473388671875,0.0571340921074152,-0.009987305403966456,-0.0064856904911808665
1761140445202793000,4.05479296875,0.055790860804915424,-0.005044570038467646,0.01912376613225788
1761140445212852000,4.06485205078125,0.05100421105027198,-0.00273910610768944,-0.0019522574457805602
1761140445222911700,4.074911865234375,0.02990589344203472,0.015247472688183187,0.0026331797814927995
1761140445232971000,4.084970947265625,0.047263270956277845,-0.0016366430248133837,0.0070976575102191415
1761140445243031000,4.095031005859375,0.060579264125227926,0.002325739533826709,0.0012180340202525258
1761140445253089800,4.10508984375,0.05354746579229831,0.010578257034439592,0.001702209941158071
1761140445263149000,4.115149169921875,0.036490532529354094,0.0061401101902127265,0.014144799542753024
1761140445273208800,4.125208740234375,0.03379647113978863,-0.008304448617249726,0.004189387114392594
1761140445283268000,4.13526806640625,0.06417407374680043,0.0018591266690753398,0.007850037646945566
1761140445293328000,4.145327880859375,0.045915948000550266,-0.0007988222274929285,0.010923106683045625
1761140445303387000,4.155386962890625,0.04128068941533565,-0.012757939161080867,0.007933195018908008
1761140445313446000,4.16544580078125,0.039186932006478305,0.0038440168759785592,-0.017218288703961297
1761140445323506000,4.175505859375,0.05205635045170784,-0.012814491653908043,0.012508941969228908
1761140445333565000,4.18556494140625,0.0472697006970644,0.011719024567399173,0.014070656594308093
1761140445343624700,4.195624755859375,0.05864215858280658,0.006102993050217628,-0.004956590360915288
1761140445353684000,4.20568408203125,0.038739188238978386,0.0071662749001756305,-0.0019461473654024302
1761140445363742700,4.21574267578125,0.04936345810592174,0.018105163674242794,-0.005945464400947093
1761140445373803000,4.225802978515625,0.04263035045862198,0.00700377781484276,-0.022097475580265744
1761140445383862000,4.235862060546875,0.04577215561568737,-0.006015552228782326,0.0004549954921938479
1761140445393921000,4.245921142578125,0.03889057940840721,0.0004934643390588462,0.01278447097497992
1761140445403981000,4.25598095703125,0.04936345810592174,0.002366674332413822,-0.002983125730324536
1761140445414039800,4.266039794921875,0.053552726489305494,0.013584599243570118,0.00950771432663314
1761140445424099800,4.276099853515625,0.04921498954594135,-0.00431192664867267,-0.00869732952550985
1761140445434159000,4.2861591796875,0.04622282199263572,-0.016204243690054864,0.005395301438588649
1761140445444217900,4.2962177734375,0.039788405030965805,-0.005609528711158782,0.009691902653966099
1761140445454278000,4.30627783203125,0.03829495160281658,0.0006604184038005769,0.008954930148925632
1761140445464337000,4.3163369140625,0.03844575825035572,0.005784739147592336,-0.00039024142660200594
1761140445474397000,4.32639697265625,0.05251169300377369,0.0060220367684960365,-0.00366779265939258
1761140445484456000,4.3364560546875,0.05356090979576111,0.012957096728682517,0.024363730878662317
1761140445494515000,4.346514892578125,0.04323708418011665,-0.0168508892968297,0.023976156333182005
1761140445504575000,4.356574951171875,0.04144026389122009,-0.012766907918825746,-0.0019538466146681458
1761140445514634000,4.366634033203125,0.03485504028201103,0.010954269006289541,0.001484986993903294
1761140445524694000,4.376694091796875,0.04308393944501877,0.004068948205653578,0.002985180690092966
1761140445534752800,4.386752685546875,0.03649988487958908,-0.009289422800298779,-0.005314372556330636
1761140445544812000,4.39681201171875,0.032606969094276426,0.003418886799085885,0.008596417301148176
1761140445554872000,4.4068720703125,0.055501522469520566,0.002107932064682245,-0.0025517942415084686
1761140445564930800,4.416930908203125,0.0400894338041544,-0.002684124517440796,0.00512359009142965
1761140445574991000,4.4269912109375,0.03739420337080955,0.004559051543846726,0.013016507898876442
1761140445585049900,4.4370498046875,0.061785717305541034,-0.0026415092184208333,-0.0019394801625981927
1761140445595108900,4.44710888671875,0.04353168321251869,-0.013279570148698985,0.0025902539552189407
1761140445605169000,4.4571689453125,0.05610241097211838,0.004291998105496168,0.00960047064400278
1761140445615228000,4.467227783203125,0.04921966572105884,-0.01112357942489907,-0.0002243468077853322
1761140445625288000,4.477287841796875,0.049667409488558766,-0.016584639576077462,0.01831259587984532
1761140445635347000,4.487346923828125,0.033057050949335094,-0.0025119828209280966,0.011551431181840597
1761140445645406000,4.497406005859375,0.032307693886756896,0.002374766307324171,0.013712171145994215
1761140445655465700,4.5074658203125,0.038591888722777364,-0.007010828610137104,-0.0007831223348621279
1761140445665525000,4.51752490234375,0.04188450052738189,-0.006712558049615472,-0.0025413002469576894
1761140445675585000,4.5275849609375,0.04517886589765548,-0.008464790278114379,0.0018446414859965442
1761140445685644000,4.53764404296875,0.05909808565676212,-0.006044668725412338,0.013474307269509881
1761140445695703000,4.547703125,0.04308803109824657,0.02529679221138358,0.0039016653473488982
1761140445705762800,4.5577626953125,0.03097030780315399,-0.010090984974149614,-0.009403066642070189
1761140445715822000,4.567822021484375,0.041595746713876725,-0.0028680297169834373,0.0013303352883085608
1761140445725881900,4.5778818359375,0.03725508716106415,0.0025400946705602108,-0.002059124486893415
1761140445735940900,4.58794091796875,0.035460020437836644,0.001469378432817757,0.0033498127514030784
1761140445746000000,4.597999755859375,0.04219546617269516,-0.0019380553904920815,-0.010626251761475577
1761140445756060000,4.608059814453125,0.04369067316651344,-0.012117595430929213,-0.022886452267179263
1761140445766119000,4.618118896484375,0.046833647367358205,-0.0015516864214092491,0.004452193635888398
1761140445776179000,4.628178955078125,0.05192249493896961,-0.005319934647437185,0.010520772959850728
1761140445786238000,4.638238037109375,0.037109541210532185,-0.0021049363899976014,0.005913059968687594
1761140445796297000,4.648296875,0.04085340391397476,-0.01822232378050685,0.008894879657914861
1761140445806357000,4.65835693359375,0.056117608541250225,-0.0014992621144279837,0.013381624017376453
1761140445816416000,4.668416015625,0.03860825533568859,0.012638532298803328,0.001980414961185306
1761140445826476800,4.678476806640625,0.03352349941730499,0.00886871317019686,-0.0016341588067822158
1761140445836535800,4.688535888671875,0.048337622189521784,-0.005717592195514589,0.0004888155634049326
1761140445846594800,4.6985947265625,0.04145429241657257,-0.0011624861744232474,0.0069999875557143236
1761140445856654800,4.70865478515625,0.052073886108398436,0.0019246479196473956,0.019860555974207817
1761140445866713900,4.7187138671875,0.03620879297852516,-0.0031724012247286736,-0.003471274573449045
1761140445876772900,4.72877294921875,0.04428805453777313,-0.0015155373957939445,-0.012393252300843595
1761140445886833000,4.7388330078125,0.05341419480144977,-0.0024682715433649717,0.006848313258495182
1761140445896892000,4.748891845703125,0.04099193560183048,-0.005933591300062835,0.004291815442405641
1761140445906952000,4.758951904296875,0.04009644806683063,0.005358513092156499,-0.016690310173947363
1761140445917010700,4.7690107421875,0.04593406817913055,-0.0060051586989313364,-0.002670086858933791
1761140445927070000,4.779070068359375,0.032764790004491805,-0.012843151492811738,-0.016934393728664145
1761140445937129700,4.789129638671875,0.035757542079687114,0.003960026204772293,0.0028993838364724067
1761140445947188700,4.799188720703125,0.047131753531098365,0.003528575984947383,0.014750117625296115
1761140445957249000,4.8092490234375,0.040698505613207814,0.00291375028854236,0.018934655034635216
1761140445967307800,4.819307861328125,0.03366553823649883,0.0026571817115880548,-0.015594514293875544
1761140445977367000,4.829366943359375,0.04578209248781204,0.0004867058047093451,-0.0009143292327877133
1761140445987426800,4.8394267578125,0.05700608181357383,-0.00478867731494829,-0.0056748672986403105
1761140445997485800,4.84948583984375,0.055360652694106095,0.0010155885170213877,-0.004303661143826321
1761140446007545900,4.8595458984375,0.04982756848633289,0.0010257263185456395,-0.008698991759633646
1761140446017604900,4.86960498046875,0.04893266547322273,0.007038355937879532,-0.012925550812948494
1761140446027664000,4.879663818359375,0.049533553975820536,-0.007136975740455091,0.012270767565490677
1761140446037724000,4.889723876953125,0.03860942437946796,-0.0027715653388760983,0.013434715044638142
1761140446047783000,4.899782958984375,0.03860942437946796,0.00350364247309044,-0.007042502390034496
1761140446057842700,4.9098427734375,0.039808278775215145,-0.002201309436559677,-0.0027126656253356487
1761140446067902000,4.91990185546875,0.032926118046045304,-0.004498169935774058,-0.007324981726380065
1761140446077960700,4.929960693359375,0.04085983365476131,-0.011881777381058781,-0.015755751003883777
1761140446088020700,4.940020751953125,0.04684592232704162,-0.008304594747722148,-0.00005004055364988744
1761140446098080000,4.950080078125,0.05642155992388725,-0.007576864995062351,0.00818200954766944
1761140446108139800,4.960139892578125,0.03996317707598209,-0.006009926205594093,-0.003279304798459634
1761140446118198800,4.97019873046875,0.04235796325802803,0.011886782349739222,-0.015905142012471334
1761140446128257800,4.9802578125,0.04909282447099685,0.01241873380197212,-0.0006546005843672901
1761140446138317800,4.99031787109375,0.03877075242102146,0.007935889299493282,-0.015233626825921236
1761140446148376800,5.000376953125,0.047447979873418804,0.004389193135965615,0.009323142406810075
1761140446158436900,5.010436767578125,0.04071253413856029,-0.0017970577509142458,0.009302446678653358
1761140446168495900,5.020495849609375,0.04355564860999584,-0.0002702865750528872,-0.0063358610911760475
1761140446178555000,5.030554931640625,0.03906652049720287,0.010133088816516101,-0.006434033369179815
1761140446188615000,5.040614990234375,0.05373275923132896,-0.000586659047845751,0.01692393626673147
1761140446198673700,5.050673583984375,0.042213586351275444,-0.009442841530032456,0.010860873368103057
1761140446208733000,5.06073291015625,0.027552023792266844,-0.009153411863092332,0.0001344217683188617
1761140446218793000,5.07079296875,0.03503682658970356,0.002873162549827248,-0.004358861929783598
1761140446228851700,5.080851806640625,0.042970542198419566,-0.006006656536273658,-0.0033641335377003995
1761140446238911700,5.090911865234375,0.044617724883556364,0.0012476071746088564,0.0029014479293953625
1761140446248970800,5.100970703125,0.035788521739840505,0.005779040059167891,-0.015197395601915195
1761140446259029800,5.11102978515625,0.0461105937898159,-0.00126835770169273,-0.000726213649008423
1761140446269090000,5.121090087890625,0.0381762936592102,-0.0055489758966490626,0.01883730474053882
1761140446279148800,5.131148681640625,0.041317514294385904,0.0015180581464432179,-0.011453478099545463
1761140446289208800,5.141208740234375,0.042216508960723875,-0.00036205651173368096,-0.005165319474460557
1761140446299267800,5.151267822265625,0.03847790695428848,0.004433945593144744,0.0069657382262405
1761140446309326800,5.161326904296875,0.054635261029005046,-0.0035165202209725974,-0.005327432967303321
1761140446319386600,5.17138671875,0.05358955136835575,-0.005216182012017816,-0.0015030615067109464
1761140446329446000,5.18144580078125,0.03907353475987911,-0.0014227080131880938,-0.005590814877534285
1761140446339506000,5.191505859375,0.04625321713089943,0.002168649275973439,-0.01954091383209452
1761140446349564700,5.201564697265625,0.041461891201138495,0.010080682775843888,-0.00015102584324777125
1761140446359624000,5.2116240234375,0.046398763081431385,-0.003806132551003247,-0.017560699800308794
1761140446369683700,5.22168359375,0.0523848517537117,0.0012032200436107813,-0.010525467401277274
1761140446379743000,5.231742919921875,0.04325520435869693,0.0034093883183784783,-0.0070650886811781674
1761140446389803000,5.241802978515625,0.04998655844032764,0.011443696491047739,0.017871647179313003
1761140446399861800,5.25186181640625,0.04983808988034725,0.00855816764999181,0.0001352802848443389
1761140446409921000,5.261921142578125,0.04639408690631389,-0.0057054816326126455,-0.024904240096686407
1761140446419980800,5.271980712890625,0.043102644145488735,-0.004632007182203233,-0.008832765073981135
1761140446430039800,5.282039794921875,0.04998422035276889,0.007591112716123461,0.0030311113242059945
1761140446440099800,5.292099853515625,0.04265490037798881,0.0066108695071190595,0.007944748459383845
1761140446450158800,5.302158935546875,0.04460135827064514,-0.008187854766566307,-0.0012985336442478
1761140446460217900,5.3122177734375,0.035925299862027166,-0.0004259520608000457,0.004885333489300683
1761140446470278000,5.32227783203125,0.03428220883011818,-0.0002971563156694174,0.009068784053251146
1761140446480337000,5.3323369140625,0.0519447067707777,-0.00009461948089301586,-0.011903642152994871
1761140446490396000,5.34239599609375,0.031447277665138246,0.0002857764051295817,0.008810754171572625
1761140446500456000,5.3524560546875,0.03863222073316574,-0.0059396374483592805,-0.008361348169948905
1761140446510514700,5.3625146484375,0.042974633851647376,-0.010869385468121617,-0.014088502778252587
1761140446520574700,5.37257470703125,0.0497094950646162,-0.00822630534712225,-0.01903343923399225
1761140446530634000,5.382634033203125,0.026213468664884564,0.010070526708010584,0.008851515440223738
1761140446540692700,5.392692626953125,0.04746259292066097,-0.009906294323317705,-0.0035183651181869206
1761140446550752800,5.402752685546875,0.03923310923576355,0.006648991294112056,0.010543057856895029
1761140446560811800,5.412811767578125,0.031302900758385654,0.007034976670704782,-0.0007114179386757314
1761140446570871800,5.422871826171875,0.04357552235424518,-0.0014421616323292254,0.011927242224290967
1761140446580931000,5.43293115234375,0.04417816442251205,0.004523961964156479,0.004882018154207616
1761140446590989800,5.44298974609375,0.027570728492736816,-0.0012264913213439286,-0.006334070992888882
1761140446601049900,5.4530498046875,0.038942601856589314,-0.004013071566261351,0.020346485460782424
1761140446611108900,5.46310888671875,0.048519993019104,-0.001963792619947344,-0.011120784679614007
1761140446621169000,5.4731689453125,0.04956804076731205,-0.012316953927930445,0.002080833995202556
1761140446631227600,5.4832275390625,0.04403203395009041,-0.0008386793138459325,-0.0033807376126293092
1761140446641287000,5.493286865234375,0.04927051912546158,0.000294325037766248,0.012970586397917941
1761140446651347000,5.503346923828125,0.04179039250314236,0.013235712740663439,-0.01707970221717842
1761140446661405700,5.51340576171875,0.05076689516305923,0.00026128128468990325,0.002905813577258959
1761140446671466000,5.523466064453125,0.04463116888701915,-0.001017433414235711,0.0019298081519547848
1761140446681524700,5.533524658203125,0.029068273574113845,-0.0017130327292717992,0.0072965593494940546
1761140446691583700,5.543583740234375,0.039842765566706656,-0.007890351391024886,-0.000018074512807652353
1761140446701644000,5.55364404296875,0.05450900430083275,-0.0006217303612269461,-0.012101110087009146
1761140446711702800,5.563702880859375,0.04493278218209743,0.004974025552906096,0.01580811137878336
1761140446721762000,5.573761962890625,0.05391162292957306,0.00700182331977412,-0.00010989011526107787
1761140446731821800,5.58382177734375,0.03176934922635555,0.003494710247963667,-0.013372180335596203
1761140446741880800,5.593880859375,0.03326455622017383,-0.0034832390058785676,0.0009735394735820591
1761140446751940600,5.603940673828125,0.034758009648323054,0.0011619929840788244,0.012924345236551015
1761140446762000000,5.613999755859375,0.057200727602839466,-0.005744443669822067,-0.005729693625262007
1761140446772058600,5.62405859375,0.15743629481196403,0.014232961883395909,-0.004104540108842775
1761140446782119000,5.634118896484375,-0.028569676402211187,-0.025802312314417212,-0.004593584001110866
1761140446792178000,5.644177978515625,-0.08795710039436817,-0.006439768990222364,0.02136211964357644
1761140446802237700,5.65423779296875,0.0069172320425510405,0.012943890187237411,-0.02120688341609202
1761140446812297000,5.664296875,0.21040508393347263,0.021506222555693236,0.00544202665714547
1761140446822355700,5.674355712890625,0.0202121824234724,0.00047393765468150374,-0.007837068567518144
1761140446832415500,5.68441552734375,-0.027062778970599173,-0.010523549438826739,0.015854827464185654
1761140446842474800,5.694474853515625,0.038624621948599815,0.013451163855940102,-0.0011550243871752172
1761140446852534800,5.70453466796875,0.12076456049680709,0.0038982860801741476,0.013160775207774714
1761140446862593500,5.714593505859375,0.0746715023636818,0.004901964963693171,0.0009989844420924781
1761140446872652800,5.72465283203125,-0.06958265479207039,0.001352236592862755,-0.013062082339962944
1761140446882712600,5.734712646484375,0.09740823482871055,0.00812901898510754,0.008453419500729068
1761140446892771800,5.744771728515625,0.1108738656014204,-0.019015191191248594,-0.027641473907697944
1761140446902831600,5.75483154296875,-0.0776730222672224,-0.007037113828863948,0.011967629033606498
1761140446912890600,5.764890625,0.0920125132650137,-0.006447294709552079,-0.015000493923481554
1761140446922949600,5.77494970703125,0.09081190530359745,-0.004793901479337364,-0.0010189129852689802
1761140446933009700,5.785009765625,-0.03069499799311161,0.00025116174947470427,0.0042987657730001955
1761140446943068700,5.795068603515625,0.08452128072679042,-0.0023806480588391423,-0.013334707002574577
1761140446953127700,5.805127685546875,0.05354337413907051,-0.0058313730346038935,0.004762711756629869
1761140446963187700,5.815187744140625,-0.018279753056168555,0.0015128887809813022,0.007772542830789461
1761140446973246500,5.82524658203125,0.0831716196835041,0.011370284194964915,-0.0016852862058207392
1761140446983306800,5.835306640625,0.048155251359939574,0.002216707935091108,0.006484749776264652
1761140446993365800,5.84536572265625,0.02361293077766895,0.002640413239877671,0.003974913246650249
1761140447003424800,5.8554248046875,0.05742869113981723,-0.001836896570958197,0.01417669251835905
1761140447013484800,5.86548486328125,0.011490531307458876,-0.0032038923415355384,0.0002751454132609069
1761140447023543600,5.87554345703125,0.06191489664316177,-0.006788838156219571,-0.009096694973483681
1761140447033603600,5.885603515625,0.03917173443734646,-0.009281075097061693,-0.0013047259230166673
1761140447043662800,5.895662841796875,0.013583704194426536,0.010352978644892572,0.017927268090378493
1761140447053721600,5.9057216796875,0.08465688980519771,0.013681264551077037,-0.0033008773094508797
1761140447063781600,5.91578173828125,0.03886135331392288,0.0013403452256694436,0.020791279219370334
1761140447073840600,5.925840576171875,0.012968787166476248,-0.0014716069225221872,0.009593474647635594
1761140447083900700,5.935900634765625,0.06713175450861454,0.01124724233718589,-0.004812907573906704
1761140447093959700,5.945959716796875,0.04916705875098705,0.01825419848980382,0.008705421500420198
1761140447104018700,5.956018798828125,0.02043546978533268,-0.0024561427141539752,0.013386144928866996
1761140447114078700,5.96607861328125,0.045723640298843383,-0.0059874951780773695,0.002009832851914689
1761140447124137700,5.9761376953125,0.03614508009254932,-0.005284991198219359,0.0032376484806649385
1761140447134197800,5.98619775390625,0.02656710440814495,0.016323522688169032,-0.0024698881117161363
1761140447144256500,5.996256591796875,0.0428776032179594,-0.007463504281081259,0.012801741770189255
1761140447154315800,6.006315673828125,0.015195815566182136,-0.004059723719581961,0.022003586751734836
1761140447164375800,6.016375732421875,0.03839022867083549,0.006127068045549094,-0.0014349738397169858
1761140447174434600,6.0264345703125,0.055446577411890026,-0.01069583726581186,0.010326620360929519
1761140447184493800,6.036493896484375,0.03464402787983417,0.0015631393971852958,0.006949453811720013
1761140447194553600,6.0465537109375,0.06592179419696331,-0.001759849279373884,0.003407671285327524
1761140447204612600,6.056612548828125,0.031208792734146118,-0.013715349483769386,0.002704263123171404
1761140447214672600,6.066672607421875,0.026420973935723305,0.0031262239954434334,-0.01318677729871124
1761140447224731600,6.076731689453125,0.07759586537778378,-0.006000683453213423,0.01572594952066429
1761140447234790700,6.086790771484375,0.0389870255202055,-0.018593166386894882,-0.0070372690924908965
1761140447244850700,6.0968505859375,0.05545008454322815,-0.009297076383791864,-0.010271510906517504
1761140447254909700,6.10690966796875,0.07400456288754939,0.0015619703534059226,-0.02006501990458928
1761140447264969500,6.116969482421875,0.032255086916685105,-0.009949768138863146,0.01779114755531773
1761140447275028700,6.12702880859375,0.04228314445614814,0.0009765716808848083,0.007395535345096141
1761140447285087500,6.13708740234375,0.04886778354346752,-0.0029839477142319082,-0.014802624130668117
1761140447295147800,6.147147705078125,0.04033785560727119,-0.0012586582915857434,0.0012970997389871626
1761140447305206800,6.157206787109375,0.04692132565081119,-0.019216175389755515,-0.012509316428564489
1761140447315266600,6.1672666015625,0.04093582150042057,-0.0033329986139200626,0.0000619684534613043
1761140447325325800,6.177325927734375,0.04138531883358955,0.004095014228671789,0.00001692373533733189
1761140447335384600,6.187384521484375,0.05290273814797401,0.0009177176331169902,0.0001742149225901812
1761140447345444600,6.197444580078125,0.041681086909770966,-0.007875099022965877,-0.000335762159852311
1761140447355503600,6.207503662109375,0.03539689207375049,-0.006256484845187514,-0.000957803048333153
1761140447365562600,6.217562744140625,0.03674421502947807,-0.007025569521542638,-0.007085638278862461
1761140447375622700,6.22762255859375,0.022527473628520964,-0.012980769865214825,-0.0027880598159506914
1761140447385681700,6.237681640625,0.05065700504779815,-0.003927110315859317,0.00715465752761811
1761140447395741700,6.24774169921875,0.05470072748064995,0.0037031653668731447,0.005285100796073675
1761140447405800700,6.25780078125,0.03435001336932182,0.00039027795922011134,0.007963608423480763
1761140447415859700,6.267859619140625,0.04317746294736862,0.0027310689317062496,0.0017151150885038077
1761140447425919700,6.277919677734375,0.034199206721782685,-0.0005851246778853237,-0.012273370514530688
1761140447435978800,6.287978759765625,0.05394844780862331,-0.014405432373471557,0.010953730150172486
1761140447446038800,6.298038818359375,0.05649287159442901,-0.011169829719420522,-0.009605649142619221
1761140447456097500,6.30809765625,0.02342296116352081,-0.003873005508445203,0.0066508635907899585
1761140447466156800,6.31815673828125,0.0527507624566555,-0.005484550624620169,0.011054688040306791
1761140447476216600,6.328216552734375,0.037490649482607837,-0.009502718491107225,-0.0006483443735167384
1761140447486275600,6.338275634765625,0.04153203382790088,0.003300009659770876,-0.012474564775591715
1761140447496334600,6.34833447265625,0.05081131882667541,0.0018217172681353985,0.007181070610508322
1761140447506394600,6.35839453125,0.0500625462859869,0.0074040109124965964,0.006608549685869366
1761140447516453600,6.36845361328125,0.04856675477027893,0.0041759705103933805,-0.010852479999093338
1761140447526513700,6.378513671875,0.053952539461851114,-0.005774838808085769,0.01716836688132025
1761140447536572700,6.38857275390625,0.026419220370054244,0.009367693934589624,0.016447377396700904
1761140447546631700,6.398631591796875,0.028216040658950805,-0.0008652385272085666,0.006452674137568101
1761140447556691700,6.408691650390625,0.03240530904233455,-0.0026574009072966873,0.017649391863914204
1761140447566750700,6.418750732421875,0.03539981468319893,-0.007078523551486432,-0.0009098996528424322
1761140447576810500,6.428810546875,0.0460235000282526,-0.0005848689495585858,-0.014763643827149644
1761140447586869800,6.438869873046875,0.0508119033485651,-0.009731504011992364,-0.00044076603744179005
1761140447596928500,6.448928466796875,0.052608723637461656,0.0012798106774687765,0.011272851702477783
1761140447606988500,6.458988525390625,0.0328565599411726,0.006329422217234969,-0.0034502957175020126
1761140447617047800,6.4690478515625,0.035250761601328846,0.005433532823435962,0.004314136872068048
1761140447627107600,6.479107666015625,0.03869125744402408,-0.006068213997781276,0.008883015690185129
1761140447637166800,6.489166748046875,0.037945407512784,0.0063385736380703744,-0.006027206133957952
1761140447647225600,6.4992255859375,0.046773441612720484,-0.0011146284447051584,-0.000060543681355193254
1761140447657285600,6.50928564453125,0.05081131882667541,-0.00906326762791723,-0.007975983847863972
1761140447667344600,6.5193447265625,0.04811667291522026,0.0050911856591701506,0.004167175282584503
1761140447677403600,6.529403564453125,0.03928863881528377,0.002389415887184441,0.015012823682092129
1761140447687463700,6.539463623046875,0.052607554593682285,0.004298245183192193,0.0038241339985746886
1761140447697522700,6.549522705078125,0.04722293894588947,0.007901457306928933,-0.000792703013960272
1761140447707582700,6.559582763671875,0.05141220732927322,-0.0049326888955198225,-0.0027499836947303263
1761140447717641500,6.569641357421875,0.047369653940200804,-0.014518756554834544,-0.014069350553210824
1761140447727700700,6.57970068359375,0.044676177072525025,0.007372446730453521,-0.003089572646329179
1761140447737760800,6.5897607421875,0.04228197541236877,-0.0015606186465360224,-0.011682501082448287
1761140447747819800,6.59981982421875,0.04392565096616745,-0.0034409707667306063,-0.008850793921016157
1761140447757879800,6.6098798828125,0.04198094663918018,0.005932805848773568,-0.00933502464084886
1761140447767938600,6.6199384765625,0.0611380670517683,-0.0051177996714599425,-0.013479412702890112
1761140447777997800,6.629997802734375,0.04961714060604572,-0.007077007447835058,-0.00908049275735393
1761140447788057600,6.6400576171875,0.029418986707925796,-0.008295845185685902,-0.0039547289751470085
1761140447798116600,6.65011669921875,0.043188568863272665,0.0017980806642211972,0.0014325170211493968
1761140447808175600,6.660175537109375,0.04004910179376602,-0.004733056403882802,0.002597633544076234
1761140447818235600,6.670235595703125,0.049777299603819845,-0.01157040987694636,-0.010090674446895717
1761140447828294700,6.680294677734375,0.038702363359928126,0.009452413075976072,0.020526207675551994
1761140447838355000,6.69035498046875,0.048726913768053055,0.006599014672543853,-0.00507964135184884
1761140447848413700,6.70041357421875,0.026727263405919074,-0.0023436405166983604,-0.00531696637221612
1761140447858472700,6.71047265625,0.03809913676977157,-0.002953461244422942,-0.005585179721191525
1761140447868533000,6.720532958984375,0.049771454384922975,-0.004460705735906958,-0.013347785679856315
1761140447878591700,6.730591796875,0.05126783042252064,0.0032777795616537333,-0.001429987137345597
1761140447888651800,6.74065185546875,0.016252046620845794,-0.011379252952709794,-0.015425852329237386
1761140447898710800,6.750710693359375,0.03181260384619236,0.0006063318626955152,-0.01601919684619643
1761140447908769800,6.760769775390625,0.04243687371313572,0.0013347740014083684,0.001865392013080418
1761140447918829600,6.77082958984375,0.038697687184810634,-0.0018703969817608593,0.006600786504521966
1761140447928888800,6.780888916015625,0.03810147485733032,-0.013002963430713861,0.001374083098489791
1761140447938948900,6.790948974609375,0.03346037105321884,-0.002554926913511008,0.004794778262171894
1761140447949008000,6.8010078125,0.03585165010392666,0.0035768538397736847,0.00578675757474266
1761140447959067000,6.81106689453125,0.04288169487118721,0.007296842477284371,-0.007035990450857206
1761140447969126700,6.821126708984375,0.053957800158858295,-0.02152865358320996,-0.026176031864481045
1761140447979186000,6.83118603515625,0.03944412163794041,-0.008502656336780637,-0.004007628206163644
1761140447989244700,6.84124462890625,0.036899113330245016,0.006615162089746445,0.0007547456237487494
1761140447999304700,6.8513046875,0.0324076471298933,-0.002824409770965576,0.017412185574555768
1761140448009364000,6.861364013671875,0.029413726010918614,-0.016390560042392463,0.019731239639269187
1761140448019423700,6.871423828125,0.028814591073989867,-0.00593876066552475,0.0025888839820399877
1761140448029482800,6.881482666015625,0.051259647116065024,-0.00041554026464000343,0.008793602107372135
1761140448039541800,6.891541748046875,0.03809446059465408,0.00488446583962068,0.009211270397016778
1761140448049601800,6.901601806640625,0.03256137638688087,-0.00561005843412131,0.014223335538525134
1761140448059660800,6.911660888671875,0.04393441879451274,-0.018035715167224405,-0.0020490597506053745
1761140448069720800,6.921720947265625,0.03944412163794041,0.0013104980766773223,-0.0016178561259526758
1761140448079779800,6.93177978515625,0.04228548254370689,-0.00015045958766713737,-0.014142845047684385
1761140448089838800,6.9418388671875,0.040489831298589705,-0.017512239282391963,-0.0011672628142405301
1761140448099899000,6.95189892578125,0.047373161071538925,-0.000021061054337769744,0.010776254691416397
1761140448109957600,6.96195751953125,0.041088966235518457,-0.0018063918348401784,-0.005565479506878182
1761140448120017000,6.972016845703125,0.04378536571264267,-0.01076996194794774,-0.01182580941012129
1761140448130077000,6.982076904296875,0.03645604573786258,-0.00228970010606572,0.004433972992608323
1761140448140135700,6.9921357421875,0.04887772041559219,-0.004618928504921496,0.0026557021405547855
1761140448150195700,7.00219580078125,0.041398178315162654,0.0045192309901118275,0.0007237111646682024
1761140448160254700,7.012254638671875,0.03736263918876648,-0.0008492007078602909,-0.0037732166620902713
1761140448170313700,7.022313720703125,0.05456921005547046,0.010732808275334536,0.01917331349556334
1761140448180374000,7.0323740234375,0.04125029427707195,-0.0045258799266070125,0.00887477758480236
1761140448190432800,7.042432861328125,0.05037935715019703,-0.007735745351202785,-0.016075173950288443
1761140448200492800,7.052492919921875,0.04185235182344913,0.008767024627700447,0.009992721364600584
1761140448210551800,7.0625517578125,0.03855857097506523,-0.019653799622040242,-0.003926617125514895
1761140448220610800,7.07261083984375,0.04992985981702804,0.0014063596665859221,0.012874405147600918
1761140448230670600,7.082670654296875,0.045289925056695934,-0.0016971227740868926,0.013315792239550501
1761140448240729900,7.092729736328125,0.014165303474664687,-0.009259539118688553,-0.0004916377081535757
1761140448250788600,7.10278857421875,0.06743979754447936,0.0122505010955967,-0.006135954604903236
1761140448260848600,7.1128486328125,0.010129764348268509,-0.04327716046217829,0.004123144344612956
1761140448270908000,7.122907958984375,0.07656418424248695,0.015934304174873976,-0.014793125649960711
1761140448280967700,7.1329677734375,0.07491641703546047,-0.0038598172333091495,-0.0030723749163560567
1761140448291027000,7.14302685546875,-0.015606734454631805,0.014679244346171617,0.01618859859635122
1761140448301085700,7.153085693359375,0.021650106272101403,-0.015074143681582063,-0.00011032850667834281
1761140448311145700,7.163145751953125,0.13192775954604147,0.017447850542981178,-0.019644858263758943
1761140448321205000,7.173205078125,0.0033908114820718764,-0.01889750136202201,0.012940072528645395
1761140448331264800,7.1832646484375,-0.013062895190715788,0.021584566755220292,-0.03320310835652053
1761140448341323800,7.19332373046875,0.10365326669812201,-0.022995310335978864,0.014487977824080735
1761140448351382800,7.2033828125,0.07043196509778499,-0.0037585670822300014,-0.0032268622251693155
1761140448361442800,7.21344287109375,-0.002588262927532196,-0.003560560292098671,-0.0011612075327895582
1761140448371501600,7.22350146484375,0.05831774893403053,-0.011949508855026214,-0.004846033525373787
1761140448381560800,7.233560791015625,0.07088204695284366,0.0029769151852466163,-0.00596079896739684
1761140448391620900,7.243620849609375,0.05995908640027046,-0.006451897819433361,-0.005460977952787652
1761140448401680000,7.253679931640625,0.002650222247838974,0.002418203590251505,0.007809340310376137
1761140448411740000,7.263739990234375,0.03212941471040249,0.004466733617894352,-0.014368077771458774
1761140448421798700,7.273798583984375,0.11457798081636428,0.008220916785951703,0.002050594120565802
1761140448431858000,7.28385791015625,0.01163023203909397,-0.0052374622620642184,0.009119856653362512
1761140448441918000,7.29391796875,0.03751461488008499,-0.010814641339890659,-0.007741006048209965
1761140448451976700,7.303976806640625,0.095572251573205,-0.002246993475500494,0.0033757600434124466
1761140448462036000,7.314035888671875,0.001152092644572258,-0.00499795441776514,-0.004708716547070071
1761140448472095700,7.324095703125,0.04709259056448936,-0.007735617487039417,-0.003839441165560856
1761140448482154800,7.33415478515625,0.05337853896617889,-0.017913513559661805,0.0015326529273763298
1761140448492214800,7.34421484375,0.0047451487004756925,0.0083484886883758,-0.004164015211118385
1761140448502273800,7.354273681640625,0.05666998172700405,-0.005276369500346482,0.005314765281975269
1761140448512332800,7.364332763671875,0.024199790754914283,0.004223901305347681,-0.019091790958261117
1761140448522392800,7.374392822265625,0.04065934264659881,-0.003740775697212666,-0.005312966050533578
1761140448532451800,7.384451904296875,0.0650508565813303,-0.010687105970084666,0.011411949645914138
1761140448542511600,7.39451171875,0.006245031869411468,-0.013155012187268585,-0.002483140318933874
1761140448552571000,7.40457080078125,0.05966799449920654,-0.002234462787490338,-0.0037120519262272863
1761140448562629600,7.414629638671875,0.05098784443736076,-0.00009631824763491749,0.01690613574855961
1761140448572689700,7.424689697265625,0.016866379126906392,0.006567961947154253,-0.0064597614654805504
1761140448582749000,7.4347490234375,0.06145780052542686,-0.010483473156765103,-0.004847467430634424
1761140448592807700,7.4448076171875,0.020759879434108734,-0.0067155719906091685,0.00042677404470741745
1761140448602868000,7.454867919921875,0.027644378250837324,-0.015242613849975167,0.004589601945737377
1761140448612926700,7.4649267578125,0.0640092385739088,-0.006657631258293986,-0.004263164736656472
1761140448622986800,7.47498681640625,0.02510579968392849,0.0007454480724409222,0.004360524163907394
1761140448633046000,7.4850458984375,0.04666004436612129,-0.005012896258570254,0.004365172939561307
1761140448643104800,7.495104736328125,0.05354220509529113,-0.004245345952175557,-0.006162751280283555
1761140448653164800,7.505164794921875,0.02496492990851402,-0.0061663771426305174,0.009828982170252128
1761140448663223800,7.515223876953125,0.05564356128871441,-0.0011256795616820454,0.01773254923587665
1761140448673283800,7.525283935546875,0.03364624901413917,0.008501779553946107,-0.0027369963489938527
1761140448683342600,7.535342529296875,0.021527356675267218,-0.009650383333489299,0.013707111378386616
1761140448693401900,7.54540185546875,0.04906301385462284,-0.01286538159092888,-0.004301606184057891
1761140448703462000,7.5554619140625,0.04741992282271385,-0.010140541470609605,-0.0175425065564923
1761140448713520600,7.565520751953125,0.05011398421227932,0.009581446283124387,0.00195401101144962
1761140448723580000,7.575579833984375,0.04427928670942783,0.013838099080603568,-0.009579592252755537
1761140448733639700,7.5856396484375,0.03320785759687424,-0.0016298479578457771,0.004372260267473757
1761140448743699000,7.595698974609375,0.04428220931887626,0.0038721104593016204,0.0031266715200152246
1761140448753759000,7.605759033203125,0.030220950740575788,0.008603340232279152,0.0033797694982495158
1761140448763817700,7.615817626953125,0.03336684755086899,-0.009013236207421869,-0.005990901844715699
1761140448773877000,7.625876953125,0.048480830052495,-0.010400909439846872,-0.014066227014362812
1761140448783936800,7.635936767578125,0.02857961327433586,0.00828272997578606,-0.004736426537903025
1761140448793995800,7.645995849609375,0.05102759192585945,-0.0038490035783499475,0.006292542539257556
1761140448804055800,7.656055908203125,0.05103051453530788,-0.005135207463987172,-0.01702663858938031
1761140448814114800,7.66611474609375,0.04654547807574272,0.006121076696179807,0.007430067802360281
1761140448824173000,7.676173095703125,0.024846856486797332,0.0014549115160480141,-0.004711657422827556
1761140448834233000,7.686233154296875,0.04220891017615795,-0.015387611811235546,-0.002600400889897719
1761140448844292000,7.6962919921875,0.020514964762330053,-0.02258819083981216,-0.006284560162201524
1761140448854351000,7.70635107421875,0.03204056738317013,0.0019643588755279776,-0.008396912673674524
1761140448864411100,7.7164111328125,0.05194879842400551,-0.002086907542962581,0.0013400803641881794
1761140448874470000,7.726469970703125,0.03998188177645206,-0.007688143349811434,-0.0010150131282862275
1761140448884530200,7.7365302734375,0.04342705379426479,-0.004760930791497231,-0.010122567422501743
1761140448894589200,7.746589111328125,0.06707154875397682,-0.007783804010320455,-0.005393904065946116
1761140448904648200,7.756648193359375,0.05180734412670135,-0.02182756346454844,0.006644908774038776
1761140448914708200,7.766708251953125,0.038788288077712056,-0.00439631699649617,0.002843169270362705
1761140448924767000,7.77676708984375,0.03355097194612026,0.004922587626613676,0.0030701464266516265
1761140448934826200,7.786826171875,0.05345394228994846,-0.022526943905558434,-0.006047573068551719
1761140448944886300,7.79688623046875,0.047619244787096976,-0.013157039747573434,-0.0002088204450905323
1761140448954945000,7.806945068359375,0.03519932367503643,-0.004073715712316334,0.006458071831893175
1761140448965005000,7.817005126953125,0.04312894763052463,-0.005958780540246516,-0.0022252748340368268
1761140448975064000,7.82706396484375,0.047018940806388854,-0.004613028487097472,0.019078054693853482
1761140448985123000,7.837123046875,0.036242110726237294,-0.00869216929320246,-0.0018257541224360465
1761140448995183000,7.84718310546875,0.04746317744255066,-0.010954086343199014,-0.012083300435682757
1761140449005242000,7.8572421875,0.045368250989913934,-0.0076734755036421114,-0.012293408655561507
1761140449015302100,7.86730224609375,0.04581891736686229,0.0022565284888260064,-0.0007604903779458254
1761140449025361200,7.877361083984375,0.05899579432606697,-0.020407960723899304,-0.010815974780451506
1761140449035420200,7.887420166015625,0.0004874912559986114,0.009687537006102502,-0.008240005078911782
1761140449045480000,7.89747998046875,0.036250294032692906,0.004335344056878239,-0.013750758723868056
1761140449055539200,7.907539306640625,0.0338543388068676,0.005111315131746232,0.0061032122459262605
1761140449065598000,7.917597900390625,0.032055764952301974,-0.013182977906428276,0.0030452220479492095
1761140449075658000,7.927657958984375,0.033548633858561515,-0.007390548642724752,-0.0009191789378412067
1761140449085717200,7.93771728515625,0.05195055198967456,-0.009699866764713079,0.012323155339853837
1761140449095777000,7.947777099609375,0.02725800928175449,-0.02868809688379988,0.005975923471292481
1761140449105836000,7.9578359375,0.02950023525059223,-0.006311758696381002,-0.00929826369388029
1761140449115895000,7.96789501953125,0.04805354455113411,0.012117851159255951,0.0037408122298307716
1761140449125955000,7.977955078125,0.05059563024938106,0.001135945227369666,0.015218328792089595
1761140449136014000,7.98801416015625,0.052988078343868254,0.010052132534794509,-0.023999445877224204
1761140449146073000,7.998072998046875,0.05897299797236919,0.0019666238978505134,-0.007198067411081865
1761140449156133000,8.008133056640625,0.043407764571905136,-0.00023570845201611518,-0.0098335122148972
1761140449166192000,8.018192138671875,0.041458968591690064,0.008800799033138901,-0.00849187921443954
1761140449176252200,8.028252197265624,0.052523383441567414,0.0031208537005819378,-0.002576362427184358
1761140449186311000,8.038310791015626,0.05118307474851608,-0.0046055027677677565,0.0036417357695288956
1761140449196370200,8.0483701171875,0.06465221265256405,0.004407642108108848,-0.0004475154386367649
1761140449206430200,8.05843017578125,-0.03785363757610321,0.0045023711868561805,0.005880080147692934
1761140449216489000,8.068489013671876,0.08904723371863364,0.038612620983552184,-0.04841973838186823
1761140449226549200,8.07854931640625,-0.03215338010787964,-0.05804981871284544,0.038315373336337506
1761140449236608000,8.08860791015625,0.06569733779132365,0.007827551820501684,-0.006729664448043331
1761140449246667300,8.098667236328126,0.13945932409465311,-0.01546075011268258,-0.003942426616000011
1761140449256727000,8.10872705078125,-0.015557634615898132,0.02551470927838236,0.0010753102144692092
1761140449266786000,8.1187861328125,-0.08453881638348103,-0.029768092406541106,-0.006484083055984228
1761140449276845000,8.128844970703126,0.2154728887170553,0.05219577718870714,-0.024101444946974516
1761140449286905000,8.138905029296875,0.09305997649133205,-0.06343154828380793,0.030996565622417253
1761140449296964000,8.148964111328125,-0.1272036536335945,0.05089004661869257,-0.026859831143869084
1761140449307024100,8.159024169921874,0.0972533365279436,-0.017149927042331547,0.006672911025816575
1761140449317083100,8.169083251953126,0.09949322440922259,-0.004907390057481825,0.010090025992924348
1761140449327142000,8.179141845703125,-0.01453121417760849,0.0005599171713925897,-0.007453229482239112
1761140449337202200,8.1892021484375,0.07151566868126392,-0.008424129474163055,-0.010478733049565925
1761140449347261200,8.19926123046875,-0.005399228695034981,0.025812742376886307,-0.0062883504213299595
1761140449357320200,8.2093203125,0.08572890295088291,-0.01320365536827594,-0.00800733796735294
1761140449367380200,8.219380126953125,0.05834814407229423,0.0031639621899463236,0.002150328167993575
1761140449377439000,8.22943896484375,-0.01407937875688076,-0.0028192404055036604,-0.0035690175931900737
1761140449387499000,8.2394990234375,0.12163783619999885,0.008194010512717068,-0.014020899168448522
1761140449397558000,8.24955810546875,0.002531564304232597,-0.019403368524927644,0.007532468730909749
1761140449407617000,8.259616943359376,0.006718494600057602,0.0038612602717243132,-0.014215079166833311
1761140449417677000,8.269677001953125,0.14423019175827503,-0.027807350260205567,-0.004055056677618995
1761140449427736000,8.279736083984375,-0.01887421181797981,0.013641151736397296,-0.014964299232093617
1761140449437796000,8.289796142578124,0.0013274492114782332,-0.009454732897225766,0.01149380097677931
1761140449447855000,8.299855224609376,0.12058745036423206,0.011485033148434012,-0.003752941059041768
1761140449457914000,8.3099140625,-0.008402502164244652,-0.010340009565465151,0.028947496738657354
1761140449467974100,8.31997412109375,0.04471884717047214,0.018070329822879285,-0.018040400475496425
1761140449478033200,8.330033203125,0.06327507908046245,-0.02477826649630442,0.00814471887773834
1761140449488092200,8.340092041015625,0.023471476480364798,0.016325440650619565,-0.004365236871642992
1761140449498152000,8.35015185546875,0.06401859092414379,-0.02181751699456945,0.024483959724847227
1761140449508211200,8.360211181640626,0.028853754040598867,0.017435429452825335,0.005401566782593727
1761140449518271000,8.37027099609375,0.02152034241259098,-0.01269417147617787,-0.00020931363543495534
1761140449528330000,8.380330078125,0.07778291238248347,0.012705514854099601,0.0000347151203546673
1761140449538389200,8.39038916015625,0.02540682845711708,-0.007236198331229389,0.0003763772980310023
1761140449548449000,8.400448974609375,0.0370738853752613,0.001217212036345154,0.021380495550483464
1761140449558508000,8.410508056640625,0.05024257902801037,-0.0005451762599870563,-0.0024679792824201284
1761140449568567000,8.420567138671874,0.014625906723737717,0.008515059160627425,-0.003536238701594993
1761140449578627000,8.430626953125,0.04560030618011951,-0.008550294870790094,0.005533997523225843
1761140449588686000,8.44068603515625,0.049040802022814745,0.020828286761511116,0.009700624816538765
1761140449598746000,8.45074609375,0.02495148590505123,0.0033416385781019926,-0.00987340583386831
1761140449608805000,8.46080517578125,0.06101531745493412,-0.004800660013686865,-0.0007805285189766436
1761140449618864000,8.470864013671875,0.03392915760874748,-0.010857713296636939,0.012808372440375387
1761140449628924200,8.480924072265625,0.028841479080915448,-0.014132003993261606,-0.013171269202325493
1761140449638983000,8.49098291015625,0.05472936905324459,-0.0017307145164348185,0.0028401096635963766
1761140449649042200,8.501042236328125,0.031982115194201466,-0.011972323475033044,-0.006213915211940184
1761140449659102200,8.511102294921875,0.014323708906769752,-0.010868837478850037,0.003942773675872013
1761140449669161000,8.521160888671876,0.04589782782196998,-0.0019399733529426157,0.008708115781005471
1761140449679221200,8.53122119140625,0.04006488388478756,0.0027752733996137973,-0.0012900854763109237
1761140449689280000,8.541280029296875,0.0334837519288063,-0.014998301966395228,-0.0077959145732223985
1761140449699339300,8.55133935546875,0.04620119468271732,0.006934621568769216,0.007309199635358527
1761140449709399000,8.56139892578125,0.04365384828746319,-0.000432016475405544,0.008199371674424036
1761140449719458000,8.5714580078125,0.04724398173391819,0.0034915501764975487,-0.013260518388357012
1761140449729518000,8.58151806640625,0.036917818030714984,-0.00979371906062588,0.00461791472476907
1761140449739577000,8.5915771484375,0.04215688772797584,-0.0002521663964726031,0.007713643117249012
1761140449749636000,8.601635986328125,0.06295651465058326,-0.010089888995606451,0.00020353234861977397
1761140449759696100,8.611696044921874,0.03213350636363029,-0.011994955431949346,0.009682340241177007
1761140449769755100,8.621755126953126,0.02540332132577896,-0.0015930596114136278,0.01018054468743503
1761140449779814000,8.63181396484375,0.060712535116076466,0.016567469245567918,-0.009289459332916885
1761140449789874200,8.641874267578125,0.05636895295381546,0.0028885062494315205,0.004308739177742973
1761140449799933200,8.65193310546875,0.012825579303503035,-0.009220102157443762,-0.003752493534469977
1761140449809993000,8.661992919921875,0.07881167090833187,-0.007286101887561381,-0.013515817456832155
1761140449820052200,8.67205224609375,0.030775077491998672,0.0005917736143805086,-0.012156155609339475
1761140449830111000,8.682111083984376,0.04155249209403991,0.0077974489431828255,-0.024000240461667998
1761140449840171000,8.6921708984375,0.05681260506808757,0.009532784835807979,0.0014415862435940652
1761140449850230000,8.70222998046875,0.008179799324274062,-0.00301028773188591,0.010455744899623096
1761140449860289000,8.7122890625,0.05905600008070468,0.0058317748934030526,-0.0009776585262734443
1761140449870349000,8.72234912109375,0.08583879306614399,0.010729081948287785,-0.0008936426377855241
1761140449880408000,8.732407958984375,0.024488544568419455,-0.003999572763871402,0.0008644439427647739
1761140449890468000,8.742468017578124,0.06399462552666664,-0.012537665740214287,0.002072331028338522
1761140449900527000,8.752527099609376,0.06174772338271141,-0.002209456210397184,-0.008371074979519472
1761140449910586000,8.762586181640625,-0.0005026888251304626,0.0035342202744446695,0.009312401817087083
1761140449920646000,8.77264599609375,0.06459083785414696,0.003005118366423994,-0.0030013281072955576
1761140449930705200,8.782705078125,0.05665770676732063,-0.0031488194197416305,-0.009434046302223578
1761140449940764000,8.792763916015625,0.013414192846417426,-0.0070572615677490826,-0.004171193870576098
1761140449950824000,8.802823974609375,0.055613166150450706,0.009658931966125965,-0.031961812191689386
1761140449960883200,8.81288330078125,0.051125791603326795,-0.012530468814447521,-0.050748007799498736
1761140449970943000,8.82294287109375,0.03885317000746727,-1.017753659166023,-0.8800249582562595
1761140449981002000,8.833001953125,0.06683189477920531,-2.6502210787951945,-1.9057253386430442
1761140449991061000,8.84306103515625,0.04752396771907806,-0.8546737324438989,-0.6378074896723032
1761140450001121000,8.85312109375,0.008767828345298767,0.5733431277420371,0.2159395381144248
1761140450011180300,8.86318017578125,0.06637596770524978,1.1634284237094223,0.6069734850673004
1761140450021239000,8.873239013671874,0.0321072028785944,1.6726389056935906,1.066451419904828
1761140450031299000,8.883299072265626,0.041834231644868845,1.318420247978717,1.5465918747492133
1761140450041358000,8.893358154296875,0.035551205852627756,-0.1568006455232389,0.1394276320484467
1761140450051418000,8.903418212890625,0.033308979883790016,-0.005796338253840804,-0.07946560477241874
1761140450061476900,8.913476806640626,0.05904489416480064,-0.005513356593996286,0.012602547669969499
1761140450071536000,8.9235361328125,0.044079964745044706,0.006406104182638228,-0.010359116124734282
1761140450081596200,8.93359619140625,0.041838323298096655,0.004193670563865453,-0.015967183531168848
1761140450091655000,8.943655029296876,0.04393324975073337,0.010606058356817811,-0.007317465140204876
1761140450101714200,8.953714111328125,0.03600011866390705,0.012642843147739767,0.0009733659436460583
1761140450111774000,8.96377392578125,0.01624561688005924,0.005294909804034978,-0.003197389535512775
1761140450121833000,8.9738330078125,0.03569908989071846,0.007507398221734911,-0.002206542734103277
1761140450131893200,8.983893310546875,0.05186170466244221,-0.011497308108117431,0.000743968501407653
1761140450141952000,8.993951904296875,0.037197219493985176,0.0051570357033051545,0.012329831675812601
1761140450152011300,9.00401123046875,0.0482715712159872,-0.0018235986979678273,0.011382677885657175
1761140450162071000,9.014071044921875,0.051112347599864,-0.0051860974010080095,-0.00013349018655717373
1761140450172130000,9.024130126953125,0.028666122514009473,-0.014786522379238158,-0.003054181672539562
1761140450182189000,9.03418896484375,0.05948854627907276,0.0027760223182849582,0.011250922998460009
1761140450192249000,9.0442490234375,0.03809095346331596,-0.0021813443607650697,-0.004480506414920092
1761140450202307800,9.054307861328125,0.025371757143735883,0.0029798195283859967,0.01143933997633867
1761140450212368100,9.0643681640625,0.042431613016128536,-0.00803133076429367,-0.016149134235642848
1761140450222427100,9.07442724609375,0.026268413722515104,0.006020995588880032,-0.00595847001299262
1761140450232486000,9.08448583984375,0.05200608156919479,0.007913622668758034,-0.012234536341484635
1761140450242546200,9.094546142578125,0.04362637575864792,0.0016906017017550765,-0.01523612017710693
1761140450252605000,9.10460498046875,0.035247254469990726,0.002979052343405783,-0.007806983956508338
1761140450262664200,9.114664306640625,0.05799158571958542,0.0009990392410196363,-0.015090418962948023
1761140450272724200,9.12472412109375,0.03764262517392635,0.012661675712373107,0.014728892174176871
1761140450282783000,9.134782958984376,0.04033434847593307,-0.003142846336681396,0.006839262302359566
1761140450292843000,9.144843017578125,0.05724456674456596,-0.0065296209644526235,-0.002755417921673506
1761140450302902000,9.154902099609375,0.03480360235571861,0.0036790355726145207,-0.005358248230675235
1761140450312961000,9.1649609375,0.03749941731095314,-0.005187503906805068,-0.004253456193394959
1761140450323021000,9.17502099609375,0.05680208367407322,-0.0004951448394916951,0.007021213006833568
1761140450333080000,9.185080078125,0.04393324975073337,0.006241214210819452,0.014928552065277472
1761140450343138800,9.195138916015624,0.04303659317195415,0.01053989778542891,-0.013610911861760541
1761140450353199000,9.20519921875,0.05485854839086532,-0.0008821896620094775,-0.004041183415893465
1761140450363258000,9.215258056640625,0.03016951281428337,-0.006182414961978792,-0.004483301160205155
1761140450373318000,9.22531787109375,0.04992401459813118,-0.003023750001657754,-0.004150589473964646
1761140450383377200,9.235377197265626,0.045586277654767034,-0.005439560705423355,0.00046055758330039676
1761140450393436000,9.245435791015625,0.047832595276832576,-0.0010213972033001483,0.0021995650040451437
1761140450403496000,9.255495849609375,0.047535073634982106,0.0015242869578301905,0.0003975753496866673
1761140450413555200,9.26555517578125,0.04619067328870296,-0.008036755858082324,-0.016385271945921702
1761140450423614000,9.275614013671875,0.03197802354097366,-0.011634944746829568,-0.004496699497895315
1761140450433674000,9.285674072265625,0.04409983848929405,0.0005391301116906106,0.00010228219754062593
1761140450443733000,9.29573291015625,0.04814005379080772,-0.006336071153730154,0.0024743907568976283
1761140450453793000,9.30579296875,0.03467150040864944,0.0022147534400224684,-0.0008592563109938054
1761140450463852000,9.31585205078125,0.04873860420584678,-0.00036505218641832467,-0.00021593517246656119
1761140450473911000,9.3259111328125,0.055173605689406394,-0.001970752083696425,0.012323703329125418
1761140450483971000,9.33597119140625,0.05592354727387428,-0.013640147089399396,-0.01600589897320606
1761140450494030000,9.346030029296875,0.04515139336884021,-0.011118008200637996,-0.015163758193794638
1761140450504089000,9.356089111328124,0.038270401683449744,-0.00502522601718083,-0.008199673068523407
1761140450514148900,9.36614892578125,0.05413140316009521,-0.006768270292226225,0.007059901049407198
1761140450524208000,9.3762080078125,0.049043140110373494,-0.001980944684147835,-0.008083380611939354
1761140450534267000,9.386266845703124,0.04066343429982662,-0.0052453350412659345,0.0016882636141963303
1761140450544327000,9.396326904296876,0.0364729968726635,-0.004825812721252441,0.0023426267365459354
1761140450554386200,9.40638623046875,0.044559272694587704,0.0006185154908336699,-0.014387440059054643
1761140450564446000,9.416446044921875,0.07396013922393321,-0.0018450433447957037,0.038313135713478545
1761140450574505200,9.426505126953124,0.061626142829656595,-0.004645341587811708,0.04371949283562135
1761140450584564000,9.43656396484375,0.017415829703211785,0.0126727633619681,-0.014794874649052507
1761140450594624000,9.4466240234375,0.026451953595876692,0.27988210466029123,0.018001063978951425
1761140450604683300,9.456683349609374,0.06589958236515521,1.4311004323497414,0.09472681372500956
1761140450614742000,9.466741943359375,-0.001073182189464569,1.5900746042534708,0.3420338240003213
1761140450624802000,9.476802001953125,0.06614332799315452,0.9712411335118114,0.8466809070590883
1761140450634861000,9.486861083984374,-0.004207388561964035,0.63530274030976,1.0325704853519797
1761140450644921000,9.496921142578126,0.04115267912149429,0.2877215113153681,0.9427572356969117
1761140450654979800,9.506979736328125,0.08888239854574204,-0.3739745477382093,0.5838776369662955
1761140450665039000,9.5170390625,0.02620060918331146,-1.1544054515592754,0.05997732987643685
1761140450675099100,9.52709912109375,0.03590834872722626,-1.375809337760508,-0.5358198546314612
1761140450685158000,9.537157958984375,0.09619067573249339,-1.543209538834542,-1.1090012524731456
1761140450695217200,9.547217041015625,-0.028947862064838407,-1.202088701493293,-1.7200491839051246
1761140450705277000,9.55727685546875,0.050806058129668236,0.2163252494963817,-0.2847529438333586
1761140450715336200,9.567336181640625,0.09690437695980071,-0.029222824815008788,0.1300511246197391
1761140450725396200,9.577396240234375,0.0002881692916154861,-0.03361287646749988,0.0028923147748690097
1761140450735455000,9.587455078125,0.03683656948804855,0.00715320535604842,0.13390206442684865
1761140450745514200,9.59751416015625,0.05373392827510833,0.2947736948492005,0.2649613979747519
1761140450755574000,9.607573974609375,0.03426701126098632,0.9504408490020781,0.285106250783056
1761140450765633000,9.617633056640624,0.06402092901170253,0.9714022423576563,0.2629363218879327
1761140450775692000,9.627692138671875,0.0400672219723463,0.7022155183054506,0.28565568309305234
1761140450785752000,9.637751953125,0.014306757771968841,0.5136350204281509,0.32667912807799876
1761140450795810800,9.647810791015624,0.04762041383087635,0.29541562774823976,0.35414917267523705
1761140450805871000,9.65787109375,0.028113749328255652,-0.1005563692618627,0.40471944928765297
1761140450815930000,9.66793017578125,0.030911271092295644,-0.4700405741777271,0.3093242347817868
1761140450825989000,9.677989013671874,0.047646717315912246,-0.7536316711574792,0.036933764518518
1761140450836049400,9.68804931640625,0.04089958114326,-0.9145213943589479,-0.33238088338356464
1761140450846108400,9.6981083984375,0.04134264873564243,-0.8654686827026307,-0.6407119789421558
1761140450856167400,9.70816748046875,0.06888239756822585,-0.5844513086684048,-0.8571591925840825
1761140450866227500,9.7182275390625,0.0443546900331974,-0.14492119709658435,-0.7223836423914879
1761140450876286200,9.7282861328125,0.0585936432659626,0.0017487798960879443,-0.07483094897540286
1761140450886346200,9.73834619140625,0.05787994203865528,0.01917040915242396,0.0935203788110055
1761140450896405200,9.7484052734375,0.031584055787324906,0.05126870720535517,0.09834671212206594
1761140450906464300,9.75846435546875,0.057362640166282654,0.13307031717728823,0.17466595429331064
1761140450916524300,9.768524169921875,0.042131168764829634,0.22583204137440768,0.21983667341712862
1761140450926583300,9.778583251953124,0.019246552261710168,0.27421766742412,0.2585950960795395
1761140450936642300,9.788642333984376,0.04767302080094814,0.2560862002648413,0.22862678665947167
1761140450946702300,9.798702392578125,0.028058219748735427,0.12727506576883607,0.17010434546619652
1761140450956761300,9.80876123046875,0.024755086550116538,-0.024530913272267207,0.12211591117368079
1761140450966821400,9.8188212890625,0.040460605204105375,-0.0936228984705638,0.03905879384847358
1761140450976880400,9.82888037109375,0.04554126946926117,-0.11693435295047237,-0.053276676893746475
1761140450986939400,9.838939453125,0.056007718425989145,-0.15318150517800821,-0.18139135355819017
1761140450996999200,9.848999267578124,0.041778117543458934,-0.2498436160808429,-0.3294884498776868
1761140451007058400,9.859058349609375,0.04684884493649005,-0.3476295251155272,-0.5142797115398571
1761140451017117200,9.8691171875,0.03725450263917446,-0.22866947502372786,-0.4443468185380101
1761140451027177200,9.87917724609375,0.05160743764042854,0.0030137491974513977,0.03775606808629818
1761140451037236500,9.889236572265625,0.06207388659715652,-0.0008565894298721104,0.0033334461384918537
1761140451047296300,9.899296142578125,0.050392801153659815,-0.009578888999857009,0.00573481732495129
1761140451057355500,9.90935546875,0.04050561338961124,-0.016968168134102596,0.0053618375604040916
1761140451067414300,9.919414306640626,0.04692600182592869,-0.008456186846550553,0.018508903903234748
1761140451077474300,9.929474365234375,0.043614100798964495,0.006777074653189629,0.0006516962412279099
1761140451087533300,9.939533203125,0.03642272799015045,-0.025112466886732725,0.007464463262306526
1761140451097592300,9.94959228515625,0.07966507286727428,-0.0143809098535683,-0.00870000553978607
1761140451107652400,9.95965234375,0.0352180283755064,0.0029596717895008623,-0.0056834707302041345
1761140451117711400,9.96971142578125,0.07711421934068202,-0.021758562482101843,-0.0138691974717658
1761140451127770400,9.979770263671876,0.026387656188011168,0.0000960625193081796,-0.010246842256141826
1761140451137830100,9.989830078125,0.05915887593328952,-0.01973769677951932,0.013925722565129398
1761140451147889400,9.999889404296875,0.05990472586452961,-0.0033604802758898586,-0.005347452842025086
1761140451157949400,10.009949462890624,0.02459375850856304,-0.024190538869379087,0.009595365210622549
1761140451168008400,10.020008544921875,0.07593816129863262,-0.01974185236482881,0.015610305518051608
1761140451178067500,10.0300673828125,0.06595452742278575,-0.03499400122812949,0.15800370117006823
1761140451188127200,10.040127197265624,0.0173585465580225,-0.08892919682953507,0.4401100212184712
1761140451198186500,10.0501865234375,0.02450608022511005,-0.06727122691138647,0.38691144192907956
1761140451208245200,10.060245361328125,0.025820669955015182,0.06535098117222078,-0.45550373397693034
1761140451218305300,10.07030517578125,0.03193476892113686,0.0844865473401267,-0.6146921331532299
1761140451228364300,10.0803642578125,0.07801496757268905,-0.03549372177803889,0.09497946417867205
1761140451238424300,10.09042431640625,0.023995208093523977,-0.010265318627748638,-0.0043913394272793085
1761140451248483300,10.1004833984375,0.08235153547227382,-0.02662629638263024,0.0025967932938598093
1761140451258542300,10.110542236328126,0.023542203629016874,-0.0006562719516456127,0.0005989431406836956
1761140451268602400,10.120602294921875,0.026831308302283287,-0.020449470911221578,-0.014636555981915444
1761140451278661400,10.130661376953125,0.07950082221627235,0.0019642401445191353,-0.017436671561840922
1761140451288720400,10.140720458984376,0.0004915829092264175,-0.0009257822085637599,-0.007973527029296382
1761140451298780400,10.150780517578125,0.07605915732979775,-0.00920638415934518,-0.00796078627873212
1761140451308839400,10.16083935546875,0.018745617002248763,0.004081341896345838,0.0016817425418645142
1761140451318898400,10.1708984375,0.048670215144753455,-0.02815822779079899,-0.014860902789700776
1761140451328958200,10.180958251953125,0.06587503244578838,0.007425099366297945,0.005790904026897623
1761140451339017500,10.191017578125,0.015297522374987601,-0.013601915704552084,0.004058591208420693
1761140451349077200,10.2010771484375,0.0675210460871458,0.00865234873946756,-0.017587816136097535
1761140451359136300,10.21113623046875,0.03444996661245823,-0.00987796327797696,-0.0025192254124674946
1761140451369195300,10.2211953125,0.05389993249177932,-0.0022641272733919322,-0.015603172524366526
1761140451379255300,10.23125537109375,0.05539689305126667,-0.010664748007804155,-0.00976479436024092
1761140451389314300,10.241314208984376,0.016640753677487373,-0.029579136572545392,0.010634179339604451
1761140451399373300,10.251373291015625,0.061678165277838704,0.006017908582650125,0.0024215828574262557
1761140451409433300,10.261433349609375,0.04117605999708175,0.003487367191724479,-0.0113068909693975
1761140451419492400,10.271492431640626,0.017236381483078003,0.0014170819899998605,-0.00020564210731536148
1761140451429552400,10.281552490234375,0.07230301966667174,-0.009275860065827146,-0.007475066854711622
1761140451439611400,10.291611328125,0.027858313262462613,0.0021594156567472963,0.0008424787061288953
1761140451449670400,10.30167041015625,0.04446984084546566,-0.005483783439639955,0.006739446056541055
1761140451459730400,10.31173046875,0.048808746832609176,-0.003451409962354228,-0.0011947901419829576
1761140451469789200,10.3217890625,0.034443536871671676,-0.019148434782633558,-0.005347416309406981
1761140451479848400,10.331848388671874,0.03698796065747738,-0.01752116237436421,-0.001906208080658689
1761140451489908500,10.341908447265626,0.05254910240471363,-0.007327895202673971,-0.0013390757171902804
1761140451499967200,10.35196728515625,0.038036008405685426,-0.010433852728223428,-0.000035409240098670125
1761140451510026500,10.362026611328124,0.02950724951326847,-0.0053947808487806465,-0.0012492511424235999
1761140451520086300,10.372086181640626,0.036837154009938235,-0.002419600962894037,-0.02194718038938008
1761140451530145300,10.382145263671875,0.04446750275790691,0.0032757428681943566,-0.005453443100303411
1761140451540205300,10.392205322265625,0.045215106254816055,-0.0019612810024525968,-0.009546776828542351
1761140451550264300,10.402264404296876,0.022472528570890424,-0.006892398995393886,0.005418024727050215
1761140451560323300,10.4123232421875,0.06541793632805347,-0.00973562306468375,-0.0009039813687093556
1761140451570383400,10.42238330078125,0.05688917743563652,-0.018424778416892513,-0.00790431598429568
1761140451580442400,10.4324423828125,0.012448562684655188,-0.008077517126733437,0.006146494265226647
1761140451590501400,10.44250146484375,0.056743046963214874,0.0016901633103378116,-0.017178522949153556
1761140451600561400,10.4525615234375,0.05629413415193557,-0.0017119732833467422,0.0029067451590206474
1761140451610620200,10.4626201171875,0.02981003185212612,-0.013785565175767987,-0.014149037326453253
1761140451620679400,10.472679443359375,0.06707037971019744,-0.006736587379174307,0.0045223453958053135
1761140451630739500,10.482739501953125,0.04911386725902557,0.0003179433753713965,0.005427669338230043
1761140451640798200,10.492798095703124,0.03430032900869846,-0.0006069894498214125,-0.0024985479506198314
1761140451650858500,10.5028583984375,0.06003975042104721,-0.012258501738961786,-0.005041866624727845
1761140451660917200,10.512917236328125,0.038190906706452366,-0.005083230681577697,-0.007870970837119967
1761140451670976500,10.5229765625,0.05091302563548088,-0.0030391576333437115,-0.0009769004744477569
1761140451681036300,10.533036376953126,0.04657411964833736,-0.00793336854884401,-0.003865287992870435
1761140451691095300,10.54309521484375,0.029663316857814787,-0.002311902804719284,0.0031117114129010585
1761140451701154300,10.553154296875,0.05824293013215065,-0.008474087829422204,0.011792911787517369
1761140451711214300,10.56321435546875,0.047318216013908385,-0.008398282646853477,-0.0033547081222292034
1761140451721273300,10.5732734375,0.046266661134362216,-0.013742146159149706,-0.01371060937657021
1761140451731333400,10.58333349609375,0.05389993249177932,-0.0021980580335482953,-0.018358608712349084
1761140451741392400,10.593392333984376,0.0265168355256319,-0.016792884632432833,-0.004016551298135891
1761140451751451100,10.603451171875,0.03085749507844448,-0.01281011687288992,-0.006982762426277623
1761140451761511400,10.613511474609375,0.0474655155301094,-0.016779093569098038,-0.008088632175792008
1761140451771570400,10.6235703125,0.04686813415884972,-0.018719295250903815,-0.01062394107338041
1761140451781629400,10.63362939453125,0.05913607957959175,-0.008513689187448471,-0.0065194283640012144
1761140451791689500,10.643689453125,0.04222586131095886,-0.017942566124210132,-0.015310582785960286
1761140451801748200,10.653748291015624,0.04881225396394729,-0.004858482014993205,-0.007610840329900384
1761140451811807500,10.663807373046875,0.04836451019644737,-0.010173247296968474,0.000020357801439240573
1761140451821867300,10.6738671875,0.054498482906818385,-0.008020142649998887,-0.0005677077522035688
1761140451831926800,10.6839267578125,0.060930561780929565,0.0020465937988832592,-0.0028137879122514275
1761140451841986600,10.693986572265626,0.05524082570672035,-0.014278180131455882,-0.0034005474247969683
1761140451852045800,10.7040458984375,0.024712416452169417,-0.016593343472341076,-0.014870373870944604
1761140451862104600,10.7141044921875,0.04581541023552418,0.004488844985002651,-0.002935240601142868
1761140451872164600,10.72416455078125,0.053149406385421746,-0.008065561827458441,-0.00666460898835212
1761140451882223600,10.7342236328125,0.038783027380704875,-0.005733748745871708,-0.006097540556965395
1761140451892282600,10.74428271484375,0.063770169121027,-0.007294659653352573,0.006840230416739359
1761140451902343000,10.754343017578124,0.05164893869459629,-0.001858743076585233,0.005073650002479553
1761140451912401700,10.764401611328125,0.04386836782097816,-0.0035443215433508157,-0.0038864769113715735
1761140451922460700,10.774460693359375,0.05449205316603183,-0.006418032082449644,0.0024480324729345736
1761140451932520700,10.784520751953124,0.04221943157017231,-0.01535259529678151,0.004831246948195621
1761140451942579700,10.794579833984375,0.028155834904313087,-0.011842230821959674,-0.012715150332124904
1761140451952639700,10.8046396484375,0.0432698174059391,-0.018547747209435327,-0.01938189647863619
1761140451962698800,10.81469873046875,0.04117430643141269,-0.009895261472649871,-0.01908597313882783
1761140451972757800,10.8247578125,0.061224576291441915,-0.02403113792343065,-0.010274817108456045
1761140451982817500,10.834817626953125,0.046859950852394104,-0.012165553625347093,-0.004244715764513239
1761140451992876800,10.844876708984375,0.029651626420021057,-0.02068543509156443,-0.015168343037366866
1761140452002935600,10.854935546875,0.05628478180170059,-0.024621340635232625,-0.004122422825405374
1761140452012995800,10.864995849609375,0.03713467565178871,-0.015468650291347875,-0.0015981924442574381
1761140452023054600,10.8750546875,0.02920563621819019,-0.017308569936454295,-0.016185803851066157
1761140452033113600,10.885113525390626,0.04506722221672535,-0.010746581072360277,-0.016365854859398676
1761140452043174000,10.895173828125,0.04716214866936207,-0.011463086178107186,-0.013328669987432658
1761140452053232600,10.905232666015625,0.030851649859547612,-0.00003813092014752328,0.008741744055971503
1761140452063292700,10.915292724609374,0.03863046716749668,-0.02969771231776103,-0.002043123200163245
1761140452073351700,10.9253515625,0.04087386218011379,-0.007005732309911399,0.0008043660522904246
1761140452083410700,10.93541064453125,0.05897650510370731,-0.008688031974202022,-0.006160833317833021
1761140452093470700,10.945470703125,0.032788755401968954,-0.006430635835696011,-0.006971528646210208
1761140452103529700,10.95552978515625,0.044160628765821455,-0.019579309613723308,-0.00009497567391954361
1761140452113588700,10.965588623046875,0.05388531944453716,-0.012042895360058172,-0.014557700325734913
1761140452123648800,10.975648681640624,0.04565408219397068,-0.0125196825589519,-0.0038339612728450446
1761140452133707800,10.985707763671876,0.048346974539756775,-0.00800405916487798,-0.0033950309994630512
1761140452143766500,10.9957666015625,0.04026479037106037,-0.004493119301320985,0.0005686849997378886
1761140452153826800,11.005826904296875,0.046997898018360136,-0.010844744217209518,-0.016619336430123074
1761140452163885800,11.0158857421875,0.018716390907764432,-0.0035905992373358457,-0.008497824898036197
1761140452173945600,11.025945556640625,0.032335166415572165,-0.015040250545134767,-0.012950274262251331
1761140452184004900,11.0360048828125,0.050588615986704825,-0.019140781199140474,0.015547158887656405
1761140452194063600,11.046063720703126,0.0422065720885992,-0.006733883965434506,-0.018465713215479625
1761140452204123600,11.05612353515625,0.024699556970596313,-0.014862291029188781,-0.012166677003353834
1761140452214182700,11.0661826171875,0.024848610052466392,-0.014113217094400898,0.005141125748120248
1761140452224241700,11.07624169921875,0.03921206644773483,-0.010424463845370336,0.005701947101810947
1761140452234301700,11.0863017578125,0.02798749260008335,-0.008612829579832032,-0.02054680293900892
1761140452244360700,11.096360595703125,0.03606850772500038,-0.020701052785804495,0.004542575333081186
1761140452254420700,11.106420654296874,0.04534545463621616,-0.009062710505491123,-0.0033492556289769705
1761140452264479700,11.116479736328126,0.047588265126943585,-0.0177556835162919,-0.011753100366936995
1761140452274538800,11.126538818359375,0.034272271957993504,-0.004656438370561227,-0.017559914349019528
1761140452284598800,11.136598876953125,0.04593231461346149,-0.009018770899064839,-0.002167562430584803
1761140452294657800,11.14665771484375,0.0070113400667905805,-0.003970967723894864,-0.023248645776230842
1761140452304716800,11.156716796875,0.073298460444808,-0.020769642776297403,0.01018422534870915
1761140452314776600,11.166776611328125,0.03259469413459301,0.0008257832996547221,-0.023690352528588844
1761140452324835800,11.1768359375,0.06178162565231323,-0.02690387121499516,0.004537131972983479
1761140452334894600,11.18689453125,0.04443535405397415,-0.0056011262089945375,-0.0002019340465776622
1761140452344954600,11.19695458984375,0.034709494331479074,-0.012847453208593651,-0.009585327873798087
