time,seconds_elapsed,z,y,x
1761140441189088800,0.0410888671875,-0.001865888712927699,0.0015338310040533543,-0.001976173836737871
1761140441199148800,0.051148681640625,0.0014645964838564396,-0.0003375178202986717,0.00197573727928102
1761140441209208000,0.0612080078125,0.0009290348389185965,0.0011040512472391129,0.0008500191615894437
1761140441219266800,0.071266845703125,-0.0011273089330643415,-0.00035690004006028175,-0.00037741975393146276
1761140441229326800,0.081326904296875,0.00028469914104789495,-0.0010144342668354511,-0.0012061955640092492
1761140441239385900,0.0913857421875,0.00025720451958477497,0.0005195997655391693,0.0023552963975816965
1761140441249446000,0.10144580078125,0.0016758705023676157,-0.000411174725741148,-0.0007925600511953235
1761140441259505200,0.111505126953125,0.00042809423757717013,-0.0008539049886167049,-0.000910863047465682
1761140441269565000,0.12156494140625,-0.00008270004764199257,0.002081164624541998,0.0005858335644006729
1761140441279624000,0.1316240234375,-0.0009666777914389968,0.0005036122165620327,-0.0007634627399966121
1761140441289683000,0.141682861328125,-0.002414105925709009,-0.0001491289585828781,-0.0024010404013097286
1761140441299743000,0.151742919921875,-0.0011369709391146898,0.0015068836510181427,0.0013806598726660013
1761140441309801700,0.1618017578125,0.00131366983987391,0.0010592062026262283,-0.002293969504535198
1761140441319862000,0.171862060546875,-0.0006379478145390749,-0.00037732161581516266,0.0016316714463755488
1761140441329921000,0.181921142578125,0.0006315810605883598,-0.0014559021219611168,-0.0003803467843681574
1761140441339979800,0.191979736328125,-0.0001363466726616025,0.0009674900211393833,0.0001733219251036644
1761140441350040000,0.2020400390625,0.000011458760127425194,0.0007110275328159332,-0.0015284380642697215
1761140441360098800,0.212098876953125,0.0026797009631991386,-0.002682494232431054,0.001291595515795052
1761140441370158800,0.222158935546875,-0.0006854692474007607,-0.00019403640180826187,0.0010844015050679445
1761140441380218000,0.232218017578125,-0.0014329333789646626,-0.0014919489622116089,0.0010796646820381284
1761140441390276900,0.24227685546875,-0.0005871133180335164,0.0009725401178002357,0.0011276016011834145
1761140441400337000,0.2523369140625,0.00039080996066331863,0.00009497953578829765,-0.001722860848531127
1761140441410396000,0.26239599609375,0.0013106658589094877,0.00013892166316509247,0.0004084670217707753
1761140441420456000,0.2724560546875,-0.0009757219813764095,-0.000632275827229023,-0.001648778561502695
1761140441430514700,0.2825146484375,0.0009249761933460832,-0.00006795208901166916,0.00101411622017622
1761140441440575000,0.292574951171875,0.0006332749035209417,0.0008043865673244,0.0005940780392847955
1761140441450634000,0.302634033203125,0.001181087107397616,-0.0003519579768180847,-0.00014095439109951258
1761140441460693000,0.31269287109375,0.0023499270901083946,-0.0009547760710120201,-0.0007516273763030767
1761140441470753000,0.3227529296875,0.0010590930469334126,-0.0017971335910260677,-0.0002493552165105939
1761140441480811800,0.332811767578125,0.0005376460612751544,0.0011240877211093903,-0.00022671837359666824
1761140441490871800,0.342871826171875,-0.000801923917606473,-0.0001899157650768757,0.0012132528936490417
1761140441500931000,0.35293115234375,-0.0013150086160749197,0.0007778676226735115,0.00030092167435213923
1761140441510990800,0.362990966796875,0.00007702573202550411,0.0023110494948923588,0.0011842921376228333
1761140441521049900,0.3730498046875,-0.0002828525612130761,-0.0011754073202610016,-0.0007865047082304955
1761140441531108900,0.38310888671875,-0.0004389137029647827,-0.000479256734251976,0.001642298186197877
1761140441541169000,0.3931689453125,-0.0035075144842267036,-0.001094970852136612,-0.0014816593611612916
1761140441551228000,0.403227783203125,0.0013626082800328732,-0.0008728629909455776,-0.0003175915917381644
1761140441561288000,0.413287841796875,0.001131925149820745,0.000020632054656744003,0.001988672185689211
1761140441571347000,0.423346923828125,0.0012078252620995045,0.0009623258374631405,0.0017258182633668184
1761140441581406000,0.433406005859375,0.0006907564820721745,0.0012453612871468067,0.0013875841395929456
1761140441591466000,0.443466064453125,-0.0014874429907649755,0.000024567823857069016,-0.0027661481872200966
1761140441601524700,0.453524658203125,0.00017708598170429468,0.00023202365264296532,0.0026411686558276415
1761140441611585000,0.4635849609375,0.0016759129939600825,0.00036145327612757683,0.0007452642312273383
1761140441621644000,0.47364404296875,0.0011237546568736434,-0.000033318065106868744,-0.0009330216562375426
1761140441631702800,0.483702880859375,0.00029790843836963177,-0.00009217392653226852,0.0014928517630323768
1761140441641763000,0.49376318359375,-0.0018808451713994145,-0.00046544941142201424,0.0021572038531303406
1761140441651821800,0.50382177734375,0.0016872581327334046,0.0009449608623981476,0.0017196463886648417
1761140441661881900,0.5138818359375,-0.0007647143211215734,-0.0015602749772369862,0.0012309562880545855
1761140441671940900,0.52394091796875,-0.0002688337117433548,-0.0007213791832327843,0.0014980713604018092
1761140441682001000,0.5340009765625,0.0013878761092200875,0.001411212608218193,0.0031665991991758347
1761140441692060000,0.544059814453125,-0.0010619658278301358,-0.00007429858669638634,0.0014137066900730133
1761140441702119000,0.554118896484375,-0.0015940809389576316,0.0010017971508204937,0.0010190069442614913
1761140441712179000,0.564178955078125,-0.0006651703733950853,0.0023855757899582386,-0.0017187227495014668
1761140441722238000,0.574238037109375,0.0001917475019581616,0.000574430450797081,-0.0015639407793059945
1761140441732298000,0.584298095703125,-0.0017475663917139173,0.0018913638778030872,-0.004455601330846548
1761140441742357000,0.59435693359375,0.0016510254936292768,-0.0005056881345808506,0.0008276104344986379
1761140441752416800,0.604416748046875,0.00015965529019013047,0.001185685396194458,-0.0023772376589477062
1761140441762476000,0.61447607421875,-0.00008914177305996418,-0.0026975697837769985,0.001478559453971684
1761140441772534800,0.62453466796875,0.0007060781354084611,-0.0007081883959472179,-0.00029084470588713884
1761140441782594800,0.6345947265625,-0.0006908787181600928,0.0002071484923362732,-0.00038205902092158794
1761140441792654000,0.644654052734375,-0.0018221894279122353,-0.0003744857385754585,0.00039185560308396816
1761140441802713900,0.6547138671875,-0.0005886472063139081,0.0000638267956674099,0.001096234773285687
1761140441812772900,0.66477294921875,0.00015650526620447636,0.0007226928137242794,-0.0035049086436629295
1761140441822833000,0.6748330078125,-0.00018722587265074253,-0.0015146126970648766,0.0005276977317407727
1761140441832893000,0.684892822265625,0.0019760599825531244,0.0007373564876616001,0.000293605902697891
1761140441842952000,0.694951904296875,-0.0016097266925498843,-0.0001766546629369259,-0.00006634905003011227
1761140441853012000,0.705011962890625,0.00018417858518660069,0.0007882085628807545,0.0008540393901057541
1761140441863071000,0.715071044921875,0.0011191186495125294,-0.0019660734105855227,0.0016115577891469002
1761140441873131000,0.725131103515625,0.0008935488294810057,0.0002281051129102707,0.0026041180826723576
1761140441883190000,0.73518994140625,-0.0001391292316839099,-0.00020488398149609566,-0.001017097500152886
1761140441893249000,0.7452490234375,-0.00046696432400494814,-0.000168665312230587,0.001347256824374199
1761140441903308800,0.755308837890625,0.00021768116857856512,-0.0020864030811935663,0.0018018230330199003
1761140441913368000,0.7653681640625,0.0014728289097547531,-0.0006469646468758583,-0.000001935870386660099
1761140441923427800,0.775427734375,0.001602684729732573,0.001528048887848854,0.0004339544684626162
1761140441933486800,0.78548681640625,-0.001369402976706624,-0.000562798697501421,0.003716832958161831
1761140441943545900,0.7955458984375,-0.0026107223238795996,-0.00047281524166464806,-0.0005005673738196492
1761140441953606000,0.80560595703125,-0.0013790102675557137,-0.0006435238756239414,-0.001029737526550889
1761140441963665000,0.815664794921875,0.002533279825001955,-0.00003633880987763405,-0.0026243384927511215
1761140441973725000,0.825724853515625,0.0021716225892305374,0.0008180029690265656,0.00022604281548410654
1761140441983784000,0.835783935546875,0.0007264527375809848,0.0005252133123576641,-0.0006883131572976708
1761140441993844000,0.845843994140625,-0.0021809199824929237,-0.001061231829226017,0.001372707192786038
1761140442003903000,0.855903076171875,0.0001803769264370203,-0.002122393110767007,-0.0008642553584650159
1761140442013962000,0.8659619140625,0.0001508158165961504,-0.0003748266026377678,-0.0005169791402295232
1761140442024021800,0.876021728515625,0.0004899640334770083,-0.0011555077508091927,-0.0010028325486928225
1761140442034081000,0.8860810546875,0.0025693601928651333,-0.000823944341391325,0.0003559123142622411
1761140442044140800,0.896140869140625,-0.0021690665744245052,-0.0016306533943861723,-0.0012668711133301258
1761140442054199800,0.90619970703125,0.00007517932681366801,-0.001295361202210188,0.002058884594589472
1761140442064258800,0.9162587890625,-0.0003586795646697283,0.00029706722125411034,-0.00005840568337589502
1761140442074318800,0.92631884765625,0.0022389679215848446,0.000351661816239357,0.0005906065925955772
1761140442084378000,0.936378173828125,-0.000007938593626022339,-0.0010973555035889149,-0.000047623529098927975
1761140442094438000,0.94643798828125,0.0014735779259353876,0.0017636781558394432,-0.00006946141365915537
1761140442104497000,0.956496826171875,-0.00031266489531844854,0.00032544322311878204,0.0005373571766540408
1761140442114557000,0.966556884765625,-0.00021066574845463037,-0.0015113390982151031,0.0009525439818389714
1761140442124616000,0.976615966796875,-0.002976327668875456,0.0010905396193265915,-0.0013936564791947603
1761140442134675000,0.986675048828125,0.0009403835865668952,0.0023126639425754547,0.00167750078253448
1761140442144735000,0.99673486328125,0.0012349679600447416,-0.004553959704935551,0.004436331335455179
1761140442154794000,1.0067939453125,-0.000004467146936804056,-0.0037206567358225584,0.0007041773642413318
1761140442164853800,1.016853759765625,0.0014454592019319534,-0.0014027482829988003,-0.000751276733353734
1761140442174913000,1.0269130859375,-0.00036176195135340095,0.00440480699762702,0.00038296362617984414
1761140442184971800,1.0369716796875,0.0003159645712003112,0.002200054470449686,-0.001263076439499855
1761140442195031800,1.04703173828125,-0.0022023203782737255,-0.001796551514416933,-0.002375212498009205
1761140442205091000,1.057091064453125,-0.0005751112475991249,-0.0006778044626116753,0.002018389292061329
1761140442215150800,1.06715087890625,0.00006324844434857368,0.0012684334069490433,0.0012298274086788297
1761140442225209900,1.0772099609375,-0.0007575381896458566,0.002216945867985487,0.000022875377908349037
1761140442235270100,1.087270263671875,-0.00035034079337492585,-0.0018963064067065716,-0.001991007011383772
1761140442245329000,1.097328857421875,0.0027862288989126682,0.0010437145829200745,-0.000644656945951283
1761140442255388000,1.107387939453125,-0.002590693300589919,0.004393971525132656,-0.004767762962728739
1761140442265448000,1.117447998046875,-0.0010052414145320654,-0.00013773329555988312,-0.000439529656432569
1761140442275507000,1.1275068359375,-0.0006867274059914052,0.0019504516385495663,0.002008980605751276
1761140442285566700,1.137566650390625,-0.0006003999733366072,0.0009191930294036865,0.0024557439610362053
1761140442295626000,1.1476259765625,0.0005029477179050446,-0.00007949257269501686,-0.0011171528603881598
1761140442305684700,1.157684814453125,0.0010892667341977358,0.00030620256438851357,-0.0024894620291888714
1761140442315744800,1.167744873046875,-0.00025216751964762807,0.0022300700657069683,0.00021604326320812106
1761140442325804000,1.177803955078125,-0.0001279475400224328,-0.001793430419638753,0.0012116730213165283
1761140442335863800,1.18786376953125,-0.0003812141949310899,0.0013296585530042648,-0.0018576200818642974
1761140442345923000,1.197923095703125,0.001361773582175374,-0.0003720475360751152,0.0013228144962340593
1761140442355983000,1.207983154296875,0.0006959832389838994,-0.002430138411000371,-0.000046316650696098804
1761140442366041900,1.218041748046875,0.0013957181945443153,0.00013446062803268433,-0.00011752592399716377
1761140442376101000,1.22810107421875,-0.0006573126884177327,0.0008649653755128384,0.002368002198636532
1761140442386161000,1.238160888671875,0.0005575804389081895,0.0005747433751821518,0.000895382312592119
1761140442396220000,1.248219970703125,-0.001585198799148202,-0.0012700282968580723,-0.0012516581919044256
1761140442406280000,1.258280029296875,0.0006110230460762978,0.0022909818217158318,0.00150364451110363
1761140442416339000,1.2683388671875,-0.00005982728907838464,-0.0022592952009290457,-0.0012135786237195134
1761140442426398000,1.27839794921875,0.0012717926874756813,-0.0015053709503263235,0.0011218226281926036
1761140442436458000,1.2884580078125,0.0022595589980483055,0.0003146333619952202,-0.0013123065000399947
1761140442446517000,1.29851708984375,0.0008479045354761183,0.00009043654426932335,0.0003750224714167416
1761140442456576800,1.30857666015625,-0.0016890227561816573,-0.0007234257645905018,0.0011931455228477716
1761140442466636000,1.318635986328125,-0.002220027381554246,0.001239475328475237,-0.00017962779384106398
1761140442476694800,1.32869482421875,0.00236700102686882,-0.0011166231706738472,0.0008739187032915652
1761140442486754800,1.3387548828125,-0.0015989849343895912,-0.000034079886972904205,-0.00036098482087254524
1761140442496814000,1.34881396484375,-0.001556640723720193,0.001324665267020464,0.0010659368708729744
1761140442506873900,1.358873779296875,0.0005232880357652903,0.00021365750581026077,-0.0019415555289015174
1761140442516932900,1.368932861328125,0.000053240160923451185,-0.00011817272752523422,0.00047739368164911866
1761140442526993200,1.3789931640625,0.001310870866291225,0.0026238723658025265,0.0007031684508547187
1761140442537052000,1.389052001953125,0.0002890159375965595,-0.00006139324977993965,0.0008296685991808772
1761140442547111000,1.39911083984375,0.0001436406746506691,-0.00029370328411459923,0.0020283882040530443
1761140442557171000,1.4091708984375,0.0018587163649499416,0.0017156517133116722,0.0022784590255469084
1761140442567230000,1.41922998046875,0.0008771271095611155,0.0002264026552438736,0.0020359670743346214
1761140442577289700,1.429289794921875,-0.0006038567516952753,-0.0009885313920676708,-0.0009712743340060115
1761140442587349000,1.439348876953125,0.0007573469774797559,0.00016040587797760963,0.0001579265808686614
1761140442597407700,1.44940771484375,-0.0009822298306971788,-0.00016609765589237213,-0.001077780150808394
1761140442607467800,1.4594677734375,-0.0006665842956863344,0.00025014905259013176,-0.00007295736577361822
1761140442617527000,1.469527099609375,0.0014604823663830757,0.0013628178276121616,-0.0008972056675702333
1761140442627586800,1.4795869140625,-0.0011826417176052928,0.0008529401384294033,0.001262311590835452
1761140442637646000,1.48964599609375,-0.0003429470816627145,-0.00041925208643078804,-0.00032173667568713427
1761140442647704800,1.499704833984375,0.0020658643916249275,0.0010615852661430836,0.0013337495038285851
1761140442657764900,1.509764892578125,0.0020959582179784775,-0.0010787975043058395,0.0016626499127596617
1761140442667824000,1.51982421875,0.0019183774711564183,-0.0006634905003011227,0.002065936103463173
1761140442677884000,1.5298837890625,0.000021407846361398697,-0.0022786976769566536,-0.000021982123143970966
1761140442687943000,1.53994287109375,0.0008628338109701872,0.00019749486818909645,-0.0003511342220008373
1761140442698002700,1.550002685546875,-0.0006146879750303924,0.0007181428372859955,-0.0018006927566602826
1761140442708062000,1.56006201171875,-0.0012879845453426242,-0.000564762856811285,-0.0005379840731620789
1761140442718120700,1.57012060546875,-0.0017835987964645028,0.00015668757259845734,-0.00034756807144731283
1761140442728181000,1.580180908203125,-0.002338165882974863,0.0009329146705567837,0.00007194711361080408
1761140442738240000,1.590239990234375,-0.00012001907452940941,0.002459971234202385,-0.0006111536640673876
1761140442748299800,1.6002998046875,0.0004983637481927872,0.019421327859163284,0.007864009588956833
1761140442758359000,1.610359130859375,0.00019156758207827806,0.002830367535352707,0.002490549348294735
1761140442768417800,1.620417724609375,0.0011810323921963573,0.00963437370955944,0.005185275338590145
1761140442778477800,1.630477783203125,0.0004699683631770313,0.00939096137881279,0.0028451557736843824
1761140442788537000,1.640537109375,0.0013859770260751247,0.0046882424503564835,-0.0005011992761865258
1761140442798596900,1.650596923828125,0.002464290941134095,0.001282325480133295,0.0035723717883229256
1761140442808656000,1.66065576171875,0.0004149125888943672,-0.0008278638124465942,0.002826048992574215
1761140442818715000,1.67071484375,-0.0004833716666325927,-0.000006811227649450302,0.000657703320030123
1761140442828774400,1.6807744140625,-0.00016741093713790178,-0.0007620793767273426,-0.0014883062103763223
1761140442838833400,1.69083349609375,-0.002517650369554758,0.00022914912551641464,-0.0005319650517776608
1761140442848893400,1.7008935546875,-0.0010288809426128864,-0.0014154019299894571,-0.0025738910771906376
1761140442858952400,1.710952392578125,0.0001421110355295241,-0.00013175839558243752,-0.0007283203303813934
1761140442869011500,1.721011474609375,0.0025924979709088802,-0.00025992002338171005,0.0013148789294064045
1761140442879071500,1.731071533203125,0.0014966072048991919,-0.0007297014817595482,-0.0002603809116408229
1761140442889130200,1.741130126953125,0.0018135581631213427,0.00035081012174487114,-0.00039705634117126465
1761140442899190500,1.7511904296875,-0.0007920786738395691,0.0026451232843101025,0.00005488214083015919
1761140442909249300,1.761249267578125,-0.0005815024487674236,-0.0006693964824080467,0.001392135163769126
1761140442919309300,1.771309326171875,0.00018895009998232126,-0.00011972011998295784,0.000931141956243664
1761140442929368600,1.78136865234375,-0.0008862128015607595,0.0007485155947506428,-0.003462426830083132
1761140442939427300,1.79142724609375,0.0004983646795153618,0.0013362751342356205,-0.00044293468818068504
1761140442949487400,1.8014873046875,-0.0011851529125124216,-0.00022146198898553848,0.0014707663794979453
1761140442959546400,1.81154638671875,-0.0003427950432524085,-0.0019727565813809633,-0.00047014537267386913
1761140442969606400,1.8216064453125,0.0003321462427265942,-0.0028485574293881655,-0.003771873889490962
1761140442979665400,1.83166552734375,-0.0011773334117606282,-0.0017928804736584425,0.0018263570964336395
1761140442989724400,1.841724365234375,0.0007873610593378544,-0.002224371302872896,-0.0009987364755943418
1761140442999784400,1.851784423828125,0.0023945788852870464,-0.004892858676612377,-0.001999286003410816
1761140443009843500,1.861843505859375,0.0012488069478422403,-0.0039725154638290405,0.00009970302926376462
1761140443019903500,1.871903564453125,-0.0008276597363874316,-0.00815314520150423,-0.0035371100530028343
1761140443029962500,1.88196240234375,0.0006255364278331399,-0.009302407503128052,-0.004001125693321228
1761140443040021500,1.892021484375,-0.0014197713462635875,-0.0015805724542587996,-0.0006657826015725732
1761140443050081500,1.90208154296875,-0.0023502716794610023,-0.0017227809876203537,0.0013038580073043704
1761140443060140300,1.912140380859375,0.0009661627118475735,-0.0003267521969974041,-0.0015720897354185581
1761140443070200300,1.922200439453125,0.0004145614802837372,-0.001293316949158907,0.0031221380922943354
1761140443080259300,1.93225927734375,0.001356787863187492,-0.0006720013916492462,-0.0027472025249153376
1761140443090318300,1.942318359375,0.0021208343096077442,0.0009829821065068245,-0.003251944435760379
1761140443100378600,1.952378662109375,0.00022333202650770545,0.00030227797105908394,-0.0014298094902187586
1761140443110437400,1.962437255859375,0.0013640791876241565,0.0015053912065923214,0.00011815904872491956
1761140443120497400,1.972497314453125,-0.001178973470814526,-0.002048597438260913,-0.0011620225850492716
1761140443130556400,1.982556396484375,0.00045963661978021264,-0.0008414369076490402,-0.0005924524739384651
1761140443140616400,1.992616455078125,0.0014684420311823487,0.0005221017636358738,-0.0004859260516241193
1761140443150675500,2.002675537109375,0.000031707691960036755,-0.0022799144499003887,-0.0005078904796391726
1761140443160734500,2.012734375,0.0009156108135357499,-0.0003938637673854828,-0.0013955221511423588
1761140443170794500,2.02279443359375,0.00016415206482633948,0.0008172341622412205,-0.0007487335242331028
1761140443180853200,2.032853271484375,-0.0004129549488425255,-0.00196976400911808,0.0015764724230393767
1761140443190913500,2.04291357421875,0.0005683721974492073,0.0036369352601468563,-0.0014646378112956882
1761140443200972300,2.05297216796875,-0.002040992956608534,-0.0014401152729988098,0.0022834951523691416
1761140443211031600,2.063031494140625,-0.0005050440086051822,0.001322372816503048,-0.0012632347643375397
1761140443221091600,2.073091552734375,0.00009869463974609971,0.000708247534930706,0.0024105957709252834
1761140443231150300,2.083150390625,-0.0036653289571404457,-0.00039264000952243805,-0.000418767798691988
1761140443241210400,2.09321044921875,-0.00019949139095842838,0.003545642364770174,0.0003503530751913786
1761140443251269400,2.103269287109375,0.003486952278763056,0.0008765179663896561,-0.0022109351120889187
1761140443261328400,2.113328369140625,-0.0012952861143276095,0.0018986393697559834,0.00030335504561662674
1761140443271388400,2.123388427734375,0.0037292218767106533,-0.00021207798272371292,0.0005088111502118409
1761140443281447400,2.133447509765625,-0.000005062436684966087,0.0008233590051531792,0.00007684645242989063
1761140443291507500,2.143507568359375,-0.0014290856197476387,0.0002084849402308464,0.00116722472012043
1761140443301566500,2.15356640625,-0.0021313612814992666,-0.0011470639146864414,0.0013983871322125196
1761140443311625500,2.16362548828125,-0.00023758073803037405,0.0010933498851954937,0.00041928235441446304
1761140443321685200,2.173685302734375,0.00005829648580402136,-0.0015556965954601765,0.0015101131284609437
1761140443331744500,2.18374462890625,0.0014511561021208763,-0.0014594478998333216,-0.0021977126598358154
1761140443341804500,2.193804443359375,0.0001478050253354013,-0.0011590435169637203,0.0002590533113107085
1761140443351863300,2.20386328125,-0.0024561807513237,0.0017161006107926369,-0.0015409437473863363
1761140443361922600,2.213922607421875,-0.0011160779977217317,0.00009609991684556007,-0.0027521494776010513
1761140443371982300,2.223982421875,0.000014148186892271042,0.002659234683960676,-0.000426812213845551
1761140443382041300,2.234041259765625,0.0010559767251834273,0.0011486895382404327,-0.002419922035187483
1761140443392101600,2.2441015625,-0.00117709138430655,-0.0006126170046627522,0.002847861498594284
1761140443402160400,2.254160400390625,-0.000766165554523468,0.0010654404759407043,0.0005599397700279951
1761140443412220400,2.264220458984375,-0.0011344149243086576,-0.0035345337819308043,0.00009477906860411167
1761140443422279400,2.274279541015625,-0.0006340069230645895,0.0013843248598277569,-0.0009792738128453493
1761140443432338400,2.28433837890625,-0.0008111733477562666,-0.0005111545324325562,-0.0020915172062814236
1761140443442398200,2.294398193359375,0.00006713718175888062,-0.002042738487944007,0.0014448942383751273
1761140443452457500,2.30445751953125,0.0014835014007985592,0.0002986039035022259,0.0010341769084334373
1761140443462517500,2.314517578125,-0.0009133436251431704,0.00030845729634165764,-0.000948013854213059
1761140443472576300,2.324576171875,-0.0010594562627375126,0.0012037083506584167,0.0021810417529195547
1761140443482635500,2.334635498046875,0.0013206108706071973,0.0004194076173007488,0.0013733049854636192
1761140443492695300,2.3446953125,0.0013358602300286293,-0.0013030893169343472,0.00031387631315737963
1761140443502754600,2.354754638671875,-0.0006268894067034125,0.0006125224754214287,-0.002491231309249997
1761140443512814600,2.364814697265625,-0.0003837620606645942,0.0002651647664606571,-0.0007626609294675291
1761140443522873300,2.374873291015625,0.0024988434743136168,-0.0004682694561779499,-0.001374388812109828
1761140443532932600,2.3849326171875,-0.0010642203269526362,-0.0013719385024160147,0.0007240106933750212
1761140443542992400,2.394992431640625,-0.0004833848215639591,0.0008366210386157036,-0.000261625275015831
1761140443553051400,2.405051513671875,-0.000054770614951848984,0.0009796866215765476,-0.0022157030180096626
1761140443563111400,2.415111328125,-0.0005874028429389,-0.001009428407996893,0.00013293878873810172
1761140443573170400,2.42517041015625,-0.0001613920321688056,0.0013312315568327904,0.003154241945594549
1761140443583229200,2.435229248046875,-0.0020106909796595573,0.001188219990581274,0.0014191926456987858
1761140443593289500,2.44528955078125,-0.002504530595615506,0.002747651655226946,-0.00122433016076684
1761140443603348500,2.455348388671875,-0.0004150144523009658,-0.002213018713518977,-0.0012325858697295189
1761140443613408300,2.465408203125,0.0013972005108371377,0.0004911087453365326,-0.0016614568885415792
1761140443623467500,2.475467529296875,0.0007324755424633622,0.001113222911953926,0.0007633513305336237
1761140443633526300,2.4855263671875,-0.00029749120585620403,0.0004248805344104767,-0.002091244561597705
1761140443643586300,2.49558642578125,0.0003523200866766274,0.00023446464911103249,0.000033958000130951405
1761140443653645600,2.5056455078125,-0.00015394552610814571,-0.0005888305604457855,-0.0009464044123888016
1761140443663705300,2.515705322265625,0.00006363476859405637,0.000922247301787138,-0.0027373800985515118
1761140443673764400,2.525764404296875,0.00016444467473775148,0.00026482949033379555,-0.0010414255084469914
1761140443683823400,2.5358232421875,-0.0005844362312927842,0.00003446638584136963,-0.00041425100062042475
1761140443693883400,2.54588330078125,-0.00008848065044730902,0.0011291769333183765,-0.0034090238623321056
1761140443703942700,2.555942626953125,-0.001504749758169055,0.0005627227947115898,0.0006941086612641811
1761140443714002400,2.56600244140625,0.0002649806556291878,0.002231811173260212,-0.0024568582884967327
1761140443724061400,2.5760615234375,-0.0013273233780637383,0.001681868452578783,-0.0036941629368811846
1761140443734120400,2.586120361328125,-0.0009420387214049697,0.0026735751889646053,-0.0010305169271305203
1761140443744180500,2.596180419921875,0.0011844952823594213,0.0008136234246194363,0.001987643539905548
1761140443754239200,2.6062392578125,-0.0009723857510834932,-0.0011636670678853989,0.0023457093629986048
1761140443764299500,2.616299560546875,-0.0009042089805006981,0.0026774099096655846,0.0002474047360010445
1761140443774358500,2.626358642578125,-0.0015750604216009378,-0.0009739948436617851,-0.00015743874246254563
1761140443784418300,2.636418212890625,-0.0015478960704058409,0.0015293769538402557,-0.00119687058031559
1761140443794477600,2.6464775390625,0.0003506846842356026,-0.0014881822280585766,0.0005176387494429946
1761140443804536300,2.656536376953125,-0.0015034080715849996,-0.0003395606763660908,0.0009352224296890199
1761140443814596400,2.666596435546875,-0.0014555605594068766,-0.0004523354582488537,-0.00024850538466125727
1761140443824655600,2.676655517578125,-0.0008654041448608041,-0.0004291660152375698,0.002051134128123522
1761140443834715400,2.68671533203125,0.0005280983750708401,0.000237148255109787,0.0007310265791602433
1761140443844774400,2.6967744140625,-0.00040320900734514,-0.0005623325705528259,0.0012785724829882383
1761140443854833400,2.70683349609375,-0.0014121016720309854,-0.0015078578144311905,-0.0010500065982341766
1761140443864893400,2.7168935546875,0.00014824431855231524,-0.00015097716823220253,-0.00041937007335945964
1761140443874952200,2.7269521484375,-0.0003157529281452298,-0.00004851026460528374,-0.0014122799038887024
1761140443885012500,2.737012451171875,0.00034577626502141356,0.0003376482054591179,0.00015951786190271378
1761140443895071500,2.747071533203125,-0.0013372867833822966,-0.000011616852134466171,0.0024791439063847065
1761140443905130500,2.757130615234375,0.0012505068443715572,-0.00026807887479662895,-0.0016096073668450117
1761140443915190500,2.7671904296875,0.0005743161309510469,0.0007550525479018688,-0.0022431528195738792
1761140443925249300,2.777249267578125,-0.0002456711372360587,0.0005606417544186115,0.00008791190339252353
1761140443935309300,2.787309326171875,0.0012400323757901788,-0.001071880105882883,0.00040347850881516933
1761140443945368600,2.79736865234375,-0.00025985995307564735,0.000492460560053587,-0.0021012243814766407
1761140443955427300,2.80742724609375,0.00125820841640234,0.0013650101609528065,0.0004919921630062163
1761140443965487400,2.8174873046875,-0.0007418255554512143,0.00015114154666662216,-0.0007138871587812901
1761140443975546400,2.82754638671875,-0.00019714946392923594,0.0005847201682627201,0.001941214082762599
1761140443985606400,2.8376064453125,0.000029485556297004223,-0.0012134462594985962,0.0024006094317883253
1761140443995665400,2.84766552734375,0.0019533620215952396,0.0003802948631346226,0.0023647029884159565
1761140444005724400,2.857724365234375,-0.00038036599289625883,0.00029347604140639305,0.0007175377104431391
1761140444015784400,2.867784423828125,-0.0007002567872405052,-0.00013602059334516525,-0.00036910700146108866
1761140444025843500,2.877843505859375,-0.000881085405126214,0.0015750601887702942,0.0022972498554736376
1761140444035903500,2.887903564453125,0.0006382644642144442,-0.0006132372654974461,0.00023531500482931733
1761140444045962200,2.897962158203125,-0.00044590840116143227,0.0024350169114768505,0.00005874742055311799
1761140444056021500,2.908021484375,0.0002984310267493129,-0.00138892512768507,0.00022734759841114283
1761140444066081500,2.91808154296875,-0.0011966675519943237,-0.000536713283509016,0.00018553598783910275
1761140444076140300,2.928140380859375,0.0011324171209707856,-0.001075848937034607,0.0014200292062014341
1761140444086200600,2.93820068359375,0.0010610444005578756,-0.0008907592855393887,-0.0007147607393562794
1761140444096259300,2.94825927734375,0.0026256092824041843,0.0034186444245278835,0.000091546680778265
1761140444106318600,2.958318603515625,0.0007965503609739244,-0.00047063641250133514,-0.00034521176712587476
1761140444116378400,2.96837841796875,0.00014725519577041268,0.0024748491123318672,0.0023856512270867825
1761140444126437400,2.978437255859375,-0.0006860479479655623,-0.0002767294645309448,0.00019573373720049858
1761140444136497400,2.988497314453125,0.0014038359513506293,0.0012320834212005138,-0.0005336416070349514
1761140444146556400,2.998556396484375,-0.00012721528764814138,0.0005423245020210743,-0.0007283186423592269
1761140444156615400,3.008615478515625,0.0010296335676684976,-0.0009614531882107258,0.0007346455240622163
1761140444166675500,3.018675537109375,-0.0006209936691448092,-0.0016429559327661991,-0.0013095969334244728
1761140444176734500,3.028734375,0.00004554423503577709,0.00035764649510383606,-0.0008458111551590264
1761140444186794500,3.03879443359375,0.002628277987241745,0.001777910627424717,-0.001963273622095585
1761140444196853500,3.048853515625,0.0006489806110039353,0.0011362573131918907,0.001120846252888441
1761140444206912500,3.05891259765625,-0.0016069830162450671,0.000560482032597065,-0.0008411045419052243
1761140444216972300,3.06897216796875,0.0015354494098573923,0.0004435451701283455,-0.001791495829820633
1761140444227031600,3.079031494140625,0.0004890934797003865,0.0006190473213791847,0.0028083159122616053
1761140444237091300,3.08909130859375,0.000596630503423512,0.0008009709417819977,-0.0005931674968451262
1761140444247150300,3.099150390625,-0.0009519975865259767,-0.0004893308505415916,-0.0014328621327877045
1761140444257209600,3.109209716796875,0.0004961187369190156,-0.0009382031857967377,-0.0006104749045334756
1761140444267269400,3.119269287109375,0.0002447163569740951,0.0026440145447850227,0.0021778547670692205
1761140444277328400,3.129328369140625,0.0006714673945680261,-0.0017384735401719809,0.0017195737455040216
1761140444287388400,3.139388427734375,0.0014184840256348252,0.00013426132500171661,0.00040823325980454683
1761140444297447400,3.149447509765625,0.00045225012581795454,0.0001012100838124752,-0.0009298813529312611
1761140444307506400,3.15950634765625,0.0004437280003912747,-0.0002764263190329075,-0.0003573017893359065
1761140444317566500,3.16956640625,-0.002067787339910865,0.00008548889309167862,-0.00014329422265291214
1761140444327625500,3.17962548828125,-0.003010812681168318,-0.0006892248056828976,-0.00047166203148663044
1761140444337685200,3.189685302734375,-0.00240574823692441,0.00037643546238541603,0.0006659606005996466
1761140444347744500,3.19974462890625,0.002957591786980629,-0.0020558296237140894,0.000027334550395607948
1761140444357803300,3.20980322265625,0.0019907651003450155,0.0013352874666452408,0.001833402318879962
1761140444367863300,3.21986328125,-0.0001631994964554906,-0.0008133510127663612,0.0009004969033412635
1761140444377922600,3.229922607421875,0.0017609349451959133,-0.0004572221077978611,0.0007942799711599946
1761140444387982300,3.239982421875,-0.001078261062502861,-0.00008677644655108452,-0.0025024469941854477
1761140444398041600,3.25004150390625,0.0014868173748254776,0.0007514096796512604,-0.0003335365909151733
1761140444408100400,3.260100341796875,0.0013411424588412046,-0.000788696575909853,0.0006520992610603571
1761140444418160400,3.270160400390625,-0.001338569214567542,-0.0012107216753065586,-0.00028995308093726635
1761140444428219400,3.280219482421875,-0.0008179211290553212,0.0019483198411762714,0.0005667858058586717
1761140444438279400,3.290279541015625,0.0006034992402419448,-0.0002682749181985855,-0.0006822384311817586
1761140444448338400,3.30033837890625,-0.0017054612981155515,-0.000674673356115818,0.0019332519732415676
1761140444458397400,3.3103974609375,0.0010768993524834514,-0.0007019210606813431,-0.0010345678310841322
1761140444468457500,3.32045751953125,0.0003392037469893694,-0.0005887364968657494,-0.000605798966716975
1761140444478516200,3.33051611328125,0.0007669623591937125,-0.000009380746632814407,-0.0003298847586847842
1761140444488576500,3.340576416015625,-0.002477566711604595,-0.00042403535917401314,-0.0007035262533463538
1761140444498635500,3.350635498046875,0.0006611763965338469,-0.0013960879296064377,0.00033494477975182235
1761140444508694500,3.360694580078125,0.0010489326668903232,-0.0005934108048677444,0.001013518194667995
1761140444518754600,3.370754638671875,-0.0004801808390766382,0.0011461498215794563,0.00040308269672095776
1761140444528813300,3.380813232421875,0.00016110832802951336,0.0001317518763244152,0.0007069493876770139
1761140444538873300,3.390873291015625,-0.0009505683556199074,0.002127270679920912,-0.00138463219627738
1761140444548932400,3.400932373046875,0.00011416350025683641,-0.0007281703874468803,-0.0012605288065969944
1761140444558991400,3.410991455078125,-0.0006388118490576744,0.0006796387024223804,0.00008386897388845682
1761140444569051400,3.421051513671875,0.0009031584486365318,0.0006460826843976974,0.0029595503583550453
1761140444579110400,3.4311103515625,-0.0000051620882004499435,0.000043218955397605896,0.0009177968604490161
1761140444589170400,3.44117041015625,0.0006545028882101178,0.0003263130784034729,-0.0005986070609651506
1761140444599229400,3.4512294921875,0.0011646494967862964,0.0020035654306411743,-0.000568023300729692
1761140444609288400,3.461288330078125,0.0006471972446888685,-0.001112333033233881,-0.0028061438351869583
1761140444619348500,3.471348388671875,-0.0021487679332494736,0.0012896214611828327,-0.0011654936242848635
1761140444629407500,3.481407470703125,0.0000645853579044342,0.0004944019019603729,0.0010545174591243267
1761140444639467500,3.491467529296875,0.0012092641554772854,0.0011314479634165764,0.0008985555614344776
1761140444649526300,3.5015263671875,0.0014079359825700521,-0.001120787113904953,0.001688182819634676
1761140444659585500,3.51158544921875,-0.0005082169082015753,0.0020216135308146477,0.0023984508588910103
1761140444669645300,3.521645263671875,-0.00004855531733483076,0.0030045858584344387,0.0009182660724036396
1761140444679704300,3.531704345703125,0.001078850356861949,0.001225935760885477,-0.0009464684408158064
1761140444689764600,3.5417646484375,0.0004751118249259889,-0.0013149860315024853,0.001059957081452012
1761140444699823400,3.5518232421875,-0.00003898132126778364,-0.0012766942381858826,-0.0016652221092954278
1761140444709882600,3.561882568359375,0.002048404421657324,-0.0012737647630274296,0.0013705152086913586
1761140444719942400,3.5719423828125,-0.0027023619040846825,0.0009884792380034924,-0.002257545245811343
1761140444730001400,3.58200146484375,0.0008236633730120957,-0.0011955793015658855,0.0014863265678286552
1761140444740061400,3.5920615234375,-0.0007723990129306912,0.0015848716720938683,-0.0006084052729420364
1761140444750120400,3.602120361328125,0.00037169503048062325,0.0006264001131057739,-0.0008526171441189945
1761140444760179500,3.612179443359375,0.002587331226095557,-0.0002536890096962452,0.001356349908746779
1761140444770239200,3.6222392578125,0.0005638613947667181,-0.0009823297150433064,-0.0027651581913232803
1761140444780298500,3.632298583984375,-0.0016016028821468353,-0.0007096421904861927,0.00011880439706146717
1761140444790358300,3.642358154296875,-0.0009765587747097015,0.002353259362280369,-0.002984310733154416
1761140444800417500,3.65241748046875,0.000990716740489006,-0.0013869586400687695,0.0010361365275457501
1761140444810476300,3.662476318359375,0.0015313384355977178,-0.001460994128137827,0.0005620938609354198
1761140444820535800,3.672535888671875,0.0009460186120122671,-0.0006631477735936642,-0.0001677225809544325
1761140444830595000,3.682594970703125,-0.0014657400315627456,0.0009906752966344357,-0.001627401215955615
1761140444840654800,3.69265478515625,-0.0024307649582624435,0.00222086813300848,-0.0009169907425530255
1761140444850713900,3.7027138671875,-0.0015607101377099752,0.0007462757639586926,0.0004489446000661701
1761140444860772900,3.71277294921875,-0.00007879058830440044,-0.00034924503415822983,0.000022938824258744717
1761140444870833000,3.7228330078125,0.001139072934165597,-0.00010103825479745865,-0.0023315618745982647
1761140444880892200,3.73289208984375,0.00005879480158910155,0.0023436881601810455,0.0010385210625827312
1761140444890952000,3.742951904296875,-0.00016863923519849777,0.0013641780242323875,-0.0017633908428251743
1761140444901011000,3.753010986328125,-0.0002951786736957729,-0.0008931704796850681,-0.0006627937545999885
1761140444911070000,3.763070068359375,-0.0007947877165861428,0.0025867819786071777,0.0007127289427444339
1761140444921130000,3.7731298828125,-0.00025269296020269394,-0.0021878161933273077,0.0005571739166043699
1761140444931188700,3.783188720703125,-0.0001762601314112544,0.002544354647397995,-0.0006558959139510989
1761140444941248800,3.793248779296875,0.00040553254075348377,0.001223843079060316,-0.003643896896392107
1761140444951308000,3.80330810546875,-0.0014006233541294932,-0.0003785807639360428,-0.0020132435020059347
1761140444961366800,3.81336669921875,0.0009664818062447011,-0.0016244594007730484,0.0023389547131955624
1761140444971427000,3.823427001953125,-0.00005217728903517127,0.0001992732286453247,0.0011655660346150398
1761140444981485800,3.83348583984375,0.00008629733929410577,0.0002094297669827938,-0.000029483286198228598
1761140444991545900,3.8435458984375,0.000964341510552913,-0.0012449226342141628,-0.000539478613063693
1761140445001605000,3.853605224609375,-0.0006709492881782353,-0.00005556503310799599,-0.0004974666517227888
1761140445011664000,3.863663818359375,0.0007573040202260017,0.0012549767270684242,-0.0018333082552999258
1761140445021724000,3.873723876953125,0.0013350507942959666,-0.0019306193571537733,0.0009324369020760059
1761140445031783000,3.883782958984375,0.001110013690777123,-0.0015146336518228054,0.0004575952480081469
1761140445041843000,3.893843017578125,0.0009070744854398072,-0.0007445281371474266,0.0014275121502578259
1761140445051901700,3.903901611328125,0.002090316964313388,-0.0008364073000848293,-0.00041885743848979473
1761140445061961000,3.9139609375,-0.0011642833705991507,-0.00034446781501173973,-0.0013826806098222733
1761140445072021000,3.92402099609375,-0.0008345840615220368,-0.0016906957607716322,0.0005411869497038424
1761140445082080000,3.934080078125,-0.00005724531365558505,-0.00008112238720059395,0.0015223500085994601
1761140445092140000,3.94414013671875,0.0017912548501044512,0.0008387332782149315,-0.0016204463317990303
1761140445102198800,3.95419873046875,0.0008263353956863284,-0.0017997240647673607,-0.00027408055029809475
1761140445112258000,3.964258056640625,-0.00253031263127923,0.0021026059985160828,-0.0007635696092620492
1761140445122318000,3.974318115234375,-0.0009795979131013155,0.001190687995404005,-0.0033269491977989674
1761140445132376800,3.984376953125,0.0023237871937453747,-0.00008629774674773216,0.00027976982528343797
1761140445142436900,3.994436767578125,-0.001431786920875311,0.001057554967701435,-0.0012079558800905943
1761140445152495900,4.004495849609375,0.0011384297395125031,0.0004149340093135834,0.00034200394293293357
1761140445162555000,4.014554931640625,0.00010562967509031296,-0.001711815595626831,-0.00046761223347857594
1761140445172615000,4.024614990234375,0.0006819376721978188,-0.0012649372220039368,-0.0005445775459520519
1761140445182674000,4.034673828125,-0.00014413578901439905,-0.0007189000025391579,-0.0016032392159104347
1761140445192734000,4.04473388671875,-0.0006663816748186946,-0.0019143931567668915,-0.00047033053124323487
1761140445202793000,4.05479296875,0.0009421213180758059,0.0003073164261877537,-0.0019119123462587595
1761140445212852000,4.06485205078125,-0.0008131681242957711,0.0000010528601706027985,-0.0029297727160155773
1761140445222911700,4.074911865234375,0.00005673646228387952,-0.0004171510227024555,-0.0009471481898799539
1761140445232971000,4.084970947265625,0.00001572381006553769,0.0009232177399098873,0.0024337347131222486
1761140445243031000,4.095031005859375,0.0006744115380570292,0.002651173621416092,-0.0008833393221721053
1761140445253089800,4.10508984375,-0.0036532250232994556,0.0007448825053870678,-0.0016902771312743425
1761140445263149000,4.115149169921875,-0.0007448492106050253,0.0011362871155142784,0.0019520706264302135
1761140445273208800,4.125208740234375,-0.0021344865672290325,-0.0013031684793531895,-0.0013880659826099873
1761140445283268000,4.13526806640625,0.0015755281783640385,-0.0006753373891115189,0.0009565668879076838
1761140445293328000,4.145327880859375,0.0000998706673271954,-0.0028681843541562557,0.00047346949577331543
1761140445303387000,4.155386962890625,0.0009467829368077219,-0.000017191749066114426,-0.001705845003016293
1761140445313446000,4.16544580078125,0.0013332075905054808,0.00030345283448696136,-0.0002616127021610737
1761140445323506000,4.175505859375,-0.0005364919197745621,-0.0010864147916436195,-0.000646046653855592
1761140445333565000,4.18556494140625,0.0030654333531856537,0.0013362625613808632,0.00012413953663781285
1761140445343624700,4.195624755859375,0.00019882828928530216,-0.00019981944933533669,-0.001316747977398336
1761140445353684000,4.20568408203125,-0.00048666930524632335,0.0010811607353389263,0.0019269820768386126
1761140445363742700,4.21574267578125,-0.003441237611696124,-0.0025749793276190758,0.002085126005113125
1761140445373803000,4.225802978515625,-0.000632401613984257,0.00255773076787591,-0.0007269058842211962
1761140445383862000,4.235862060546875,0.0013430130202323198,0.0008980794809758663,-0.0001310313236899674
1761140445393921000,4.245921142578125,-0.001494851429015398,0.0003132494166493416,-0.000858873303513974
1761140445403981000,4.25598095703125,0.00007045327220112085,-0.00009534554556012154,-0.0003367453464306891
1761140445414039800,4.266039794921875,-0.0005412748432718217,-0.0003803037106990814,0.0006646031979471445
1761140445424099800,4.276099853515625,0.0009091515094041824,0.0010138493962585926,-0.0028839115984737873
1761140445434159000,4.2861591796875,-0.0008791611180640757,0.001437824685126543,0.00016860367031767964
1761140445444217900,4.2962177734375,-0.001052189152687788,0.00024262908846139908,-0.0006834948435425758
1761140445454278000,4.30627783203125,0.0002674069837667048,-0.0006095822900533676,0.00010533345630392432
1761140445464337000,4.3163369140625,0.0012172535061836243,-0.001586186233907938,-0.0000045291963033378124
1761140445474397000,4.32639697265625,0.00036930310307070613,0.0015920302830636501,0.00018348998855799437
1761140445484456000,4.3364560546875,-0.0012931220699101686,-0.0009647207334637642,-0.0012338589876890182
1761140445494515000,4.346514892578125,-0.0009458459098823369,0.000318123959004879,0.00008041097316890955
1761140445504575000,4.356574951171875,-0.0016729716444388032,-0.0002597896382212639,0.0018764232518151402
1761140445514634000,4.366634033203125,-0.0015374167123809457,0.00024248240515589714,0.0010535063920542598
1761140445524694000,4.376694091796875,-0.0018083653412759304,0.003480353392660618,-0.002227168995887041
1761140445534752800,4.386752685546875,-0.0010275265667587519,0.0006233137100934982,0.00011188519420102239
1761140445544812000,4.39681201171875,0.0009577266173437238,-0.000031754374504089355,0.002287350594997406
1761140445554872000,4.4068720703125,0.0007207052549347281,-0.0011779791675508022,-0.002884241985157132
1761140445564930800,4.416930908203125,-0.0007107452838681638,0.0003449590876698494,-0.0007617123774252832
1761140445574991000,4.4269912109375,-0.00038770382525399327,-0.00010857731103897095,-0.0010480021592229605
1761140445585049900,4.4370498046875,0.0008940172265283763,0.001352162566035986,-0.0026211184449493885
1761140445595108900,4.44710888671875,-0.0009462271118536592,0.0004078056663274765,0.0004543000541161746
1761140445605169000,4.4571689453125,-0.00017859198851510882,0.0002608420327305794,-0.0000653495080769062
1761140445615228000,4.467227783203125,-0.000583658751565963,-0.001784998457878828,0.0017450674204155803
1761140445625288000,4.477287841796875,-0.0010501841315999627,-0.00010499125346541405,-0.000550904544070363
1761140445635347000,4.487346923828125,0.000011618132703006268,-0.0004999381490051746,0.0012414028169587255
1761140445645406000,4.497406005859375,0.0017674996051937342,-0.0005958466790616512,0.0008589321514591575
1761140445655465700,4.5074658203125,-0.0024586706422269344,-0.00008798157796263695,-0.0001557322102598846
1761140445665525000,4.51752490234375,0.00042074412340298295,0.0012318729422986507,-0.0007709730416536331
1761140445675585000,4.5275849609375,-0.000010421616025269032,-0.0017258336301892996,-0.002936122938990593
1761140445685644000,4.53764404296875,0.00112236849963665,0.0003212420269846916,-0.0008469322347082198
1761140445695703000,4.547703125,-0.0006009630742482841,-0.002562694950029254,-0.0017966155428439379
1761140445705762800,4.5577626953125,-0.001559176598675549,0.001409818883985281,-0.003826168831437826
1761140445715822000,4.567822021484375,-0.0023706420324742794,-0.0014919615350663662,0.0012905627954751253
1761140445725881900,4.5778818359375,0.0026087660808116198,-0.00008312566205859184,0.000018260616343468428
1761140445735940900,4.58794091796875,0.0010103369131684303,-0.0015499945729970932,-0.002947169356048107
1761140445746000000,4.597999755859375,-0.00119681260548532,0.004240734968334436,-0.001988799776881933
1761140445756060000,4.608059814453125,-0.0011451472528278828,0.0010625184513628483,-0.0008542932337149978
1761140445766119000,4.618118896484375,-0.0011713658459484577,0.0003321478143334389,-0.0007869436522014439
1761140445776179000,4.628178955078125,-0.0016254347283393145,-0.000009269453585147858,-0.0013249022886157036
1761140445786238000,4.638238037109375,-0.00023863109527155757,-0.00013621198013424873,-0.0013115368783473969
1761140445796297000,4.648296875,-0.0005835104384459555,-0.0009008059278130531,-0.0029533756896853447
1761140445806357000,4.65835693359375,-0.001172285177744925,-0.0000448678620159626,0.002476581372320652
1761140445816416000,4.668416015625,-0.002017572522163391,0.0009362408891320229,-0.0018768879817798734
1761140445826476800,4.678476806640625,0.0010234807850793004,-0.0025447080843150616,-0.0005027698935009539
1761140445836535800,4.688535888671875,0.00020056404173374176,-0.002412615343928337,0.002635765355080366
1761140445846594800,4.6985947265625,0.000699683791026473,0.0012052706442773342,0.004238625057041645
1761140445856654800,4.70865478515625,0.0004325687186792493,0.0035003828816115856,0.0035302243195474148
1761140445866713900,4.7187138671875,-0.0005333657027222216,0.0011572339572012424,-0.0010121949017047882
1761140445876772900,4.72877294921875,-0.0006204511155374348,0.0010693497024476528,0.0012243277160450816
1761140445886833000,4.7388330078125,-0.0013469564728438854,0.0003788881003856659,-0.000028775946702808142
1761140445896892000,4.748891845703125,0.000465857214294374,-0.000053077004849910736,0.0020341086201369762
1761140445906952000,4.758951904296875,0.00007611943874508142,0.0010210629552602768,-0.0011457945220172405
1761140445917010700,4.7690107421875,-0.0012466725893318653,-0.0012679239735007286,-0.0014693685807287693
1761140445927070000,4.779070068359375,0.0006292110192589462,-0.0014446922577917576,-0.00016014045104384422
1761140445937129700,4.789129638671875,0.0011392063461244106,-0.001110998447984457,0.0006633088923990726
1761140445947188700,4.799188720703125,0.00005241873441264033,-0.0008548414334654808,-0.000007456925231963396
1761140445957249000,4.8092490234375,0.0005099498084746301,-0.00008145952597260475,-0.0006375608500093222
1761140445967307800,4.819307861328125,0.001154187135398388,-0.0027191273402422667,0.0018440332496538758
1761140445977367000,4.829366943359375,-0.0011686220532283187,0.0013965219259262085,0.0021052893716841936
1761140445987426800,4.8394267578125,0.0008435677154920995,0.00024549150839447975,-0.00047478952910751104
1761140445997485800,4.84948583984375,0.001079790061339736,-0.0002562478184700012,-0.004002412315458059
1761140446007545900,4.8595458984375,-0.0006279278895817697,-0.00017444323748350143,-0.0007518163183704019
1761140446017604900,4.86960498046875,-0.0006931753014214337,0.00041278358548879623,-0.001597636379301548
1761140446027664000,4.879663818359375,-0.0010251535568386316,-0.001035426277667284,-0.0011100928531959653
1761140446037724000,4.889723876953125,-0.001086406409740448,0.0008729947730898857,0.0013711743522435427
1761140446047783000,4.899782958984375,0.0012888123746961355,-0.0016825301572680473,-0.0011982512660324574
1761140446057842700,4.9098427734375,0.002239560941234231,-0.0026172997895628214,-0.00041794509161263704
1761140446067902000,4.91990185546875,-0.0008101896964944899,0.0002830149605870247,-0.0037199007347226143
1761140446077960700,4.929960693359375,-0.00020085839787498116,-0.0008408389985561371,0.00014594401000067592
1761140446088020700,4.940020751953125,0.0018478981219232082,0.0030101239681243896,-0.0006607190589420497
1761140446098080000,4.950080078125,-0.00001684733433648944,0.000484648160636425,0.0005070770857855678
1761140446108139800,4.960139892578125,-0.0013034797739237547,-0.0015796676743775606,-0.00015708798309788108
1761140446118198800,4.97019873046875,0.0013932372676208615,0.000004380475729703903,-0.00011341209756210446
1761140446128257800,4.9802578125,-0.0005771590513177216,0.0006548007950186729,0.00016935262829065323
1761140446138317800,4.99031787109375,0.0004865074879489839,-0.000649615190923214,-0.0008506380836479366
1761140446148376800,5.000376953125,0.00007196614751592278,-0.0005617812275886536,0.00038581271655857563
1761140446158436900,5.010436767578125,0.001093288417905569,0.0006281188689172268,0.0024146088398993015
1761140446168495900,5.020495849609375,-0.0014201984740793705,-0.0003287633880972862,-0.0007725371397100389
1761140446178555000,5.030554931640625,0.00023122777929529548,0.0013897744938731194,-0.0023507263977080584
1761140446188615000,5.040614990234375,-0.0015900845173746347,-0.00294481567107141,0.000042067491449415684
1761140446198673700,5.050673583984375,-0.0006127043743617833,-0.0015027138870209455,-0.0006977586890570819
1761140446208733000,5.06073291015625,0.001039220136590302,-0.000025860033929347992,-0.0006005441537126899
1761140446218793000,5.07079296875,-0.0007288524066098034,-0.001866903156042099,-0.0011821785010397434
1761140446228851700,5.080851806640625,-0.00010800093878060579,0.0012265886180102825,-0.0015037765260785818
1761140446238911700,5.090911865234375,-0.0005985551979392767,-0.000780635979026556,-0.000391640467569232
1761140446248970800,5.100970703125,-0.0004353285185061395,0.0016160784289240837,0.001670836005359888
1761140446259029800,5.11102978515625,0.0020696406718343496,0.0014075529761612415,0.0020985398441553116
1761140446269090000,5.121090087890625,-0.0008792866719886661,-0.00038656406104564667,0.00244374037720263
1761140446279148800,5.131148681640625,-0.001658261171542108,0.00047283805906772614,-0.00045537686673924327
1761140446289208800,5.141208740234375,-0.00038568349555134773,-0.0015926775522530079,-0.00277127418667078
1761140446299267800,5.151267822265625,0.0008566812030039728,-0.0003242138773202896,-0.0017163960728794336
1761140446309326800,5.161326904296875,0.0005806630942970514,0.002180027775466442,0.0013616954674944282
1761140446319386600,5.17138671875,0.00042992812814190984,0.0010463199578225613,0.0013925881357863545
1761140446329446000,5.18144580078125,0.0005336272297427058,0.003559516277164221,0.0011374978348612785
1761140446339506000,5.191505859375,-0.0003992780693806708,0.00006811181083321571,0.001323652919381857
1761140446349564700,5.201564697265625,0.0016381298191845417,0.00002919137477874756,0.003513511037454009
1761140446359624000,5.2116240234375,0.0007006970699876547,0.0013786149211227894,-0.00016644492279738188
1761140446369683700,5.22168359375,0.0018698759377002716,-0.0015435514505952597,0.00022776337573304772
1761140446379743000,5.231742919921875,-0.0025672167539596558,0.0011837915517389774,0.0013873036950826645
1761140446389803000,5.241802978515625,-0.0013493302976712584,-0.000043025240302085876,-0.0005655203713104129
1761140446399861800,5.25186181640625,0.0010501779615879059,0.0003679008223116398,0.0021551649551838636
1761140446409921000,5.261921142578125,-0.001205995911732316,0.0012577599845826626,-0.0007501456420868635
1761140446419980800,5.271980712890625,0.0016933876322582364,-0.00009006587788462639,0.001408080104738474
1761140446430039800,5.282039794921875,0.0007176529034040868,-0.001967125106602907,0.0020828014239668846
1761140446440099800,5.292099853515625,-0.0007766468334011734,-0.0004856083542108536,-0.000044265296310186386
1761140446450158800,5.302158935546875,-0.0014005909906700253,0.0009811008349061012,-0.0020595057867467403
1761140446460217900,5.3122177734375,-0.000033856602385640144,-0.00042504817247390747,-0.0020206235349178314
1761140446470278000,5.32227783203125,0.001741350395604968,0.001831104513257742,-0.0006052415701560676
1761140446480337000,5.3323369140625,-0.00024030770873650908,-0.0015367288142442703,-0.0038013013545423746
1761140446490396000,5.34239599609375,0.0009106703801080585,-0.0006867088377475739,-0.0005381404771469533
1761140446500456000,5.3524560546875,-0.0008243790362030268,-0.0006049498915672302,-0.002834051614627242
1761140446510514700,5.3625146484375,-0.0012981633190065622,0.0006245463155210018,-0.0022542334627360106
1761140446520574700,5.37257470703125,0.0019966994877904654,-0.0009504472836852074,0.00007470091804862022
1761140446530634000,5.382634033203125,0.0003775068907998502,0.00012093596160411835,-0.0002978074480779469
1761140446540692700,5.392692626953125,-0.0014334425795823336,0.0008988454937934875,-0.0005875593633390963
1761140446550752800,5.402752685546875,0.0011002968531101942,0.001662306021898985,-0.00044165801955386996
1761140446560811800,5.412811767578125,0.0018180187325924635,0.000841786153614521,0.000715485424734652
1761140446570871800,5.422871826171875,0.0008664708584547043,-0.0020101687405258417,-0.001731227501295507
1761140446580931000,5.43293115234375,0.003046268131583929,-0.0004325122572481632,-0.0028532175347208977
1761140446590989800,5.44298974609375,-0.0002522117574699223,0.0007073432207107544,-0.0008663052576594055
1761140446601049900,5.4530498046875,0.001477245008572936,0.00014355219900608063,0.00033424777211621404
1761140446611108900,5.46310888671875,0.0014800589997321367,-0.002623224165290594,0.0003813670773524791
1761140446621169000,5.4731689453125,0.00004141946556046605,0.00020585162565112114,-0.0019454366993159056
1761140446631227600,5.4832275390625,0.0025474638678133488,0.0009075296111404896,0.0004151400935370475
1761140446641287000,5.493286865234375,0.00009602407226338983,-0.0013356506824493408,-0.001378765213303268
1761140446651347000,5.503346923828125,0.0005502374842762947,-0.0005347807891666889,0.00010422366904094815
1761140446661405700,5.51340576171875,-0.0003456498961895704,0.0014133211225271225,-0.000025472312700003386
1761140446671466000,5.523466064453125,0.00021109089720994234,-0.0005551204085350037,0.0004747495986521244
1761140446681524700,5.533524658203125,0.0016468011308461428,0.0011959080584347248,-0.0013226177543401718
1761140446691583700,5.543583740234375,0.0002182036405429244,-0.0013882326893508434,-0.002876525279134512
1761140446701644000,5.55364404296875,-0.0008233587141148746,0.0005153948441147804,-0.0005870056338608265
1761140446711702800,5.563702880859375,-0.002232882659882307,0.00031039630994200706,-0.0005053920322097838
1761140446721762000,5.573761962890625,0.0003874014946632087,0.0009993561543524265,-0.002388246823102236
1761140446731821800,5.58382177734375,0.0015392294153571129,0.0017348704859614372,-0.0014279877068474889
1761140446741880800,5.593880859375,-0.00048424035776406527,-0.0009474651888012886,0.0005760410567745566
1761140446751940600,5.603940673828125,0.00004342244938015938,-0.0009490223601460457,0.0019841173198074102
1761140446762000000,5.613999755859375,0.0012602207716554403,0.001565800979733467,0.0026674845721572638
1761140446772058600,5.62405859375,-0.0010067609837278724,0.00650255661457777,0.007582016289234161
1761140446782119000,5.634118896484375,0.00009632034925743937,-0.004604955669492483,-0.005271464120596647
1761140446792178000,5.644177978515625,0.0009855758398771286,0.00002643745392560959,-0.011457626707851887
1761140446802237700,5.65423779296875,-0.001238962635397911,0.004157000686973333,0.008549105376005173
1761140446812297000,5.664296875,0.001810889458283782,0.0013031568378210068,0.010514250956475735
1761140446822355700,5.674355712890625,0.0001850296393968165,-0.0009221802465617657,-0.006355542689561844
1761140446832415500,5.68441552734375,-0.00011244550114497542,-0.0020971670746803284,-0.0019275043159723282
1761140446842474800,5.694474853515625,-0.00099155493080616,0.0017779986374080181,0.006528830621391535
1761140446852534800,5.70453466796875,0.0012267088750377297,0.0013177469372749329,0.001719677122309804
1761140446862593500,5.714593505859375,0.0024970367085188627,0.0004905690439045429,0.00111300905700773
1761140446872652800,5.72465283203125,0.0005801150109618902,-0.00019050203263759613,0.0021530857775360346
1761140446882712600,5.734712646484375,0.00048690440598875284,0.0005304156802594662,0.0007645136211067438
1761140446892771800,5.744771728515625,0.001340788439847529,-0.0006814277730882168,0.0006448136991821229
1761140446902831600,5.75483154296875,0.000057411089073866606,0.002045382745563984,0.0017502917908132076
1761140446912890600,5.764890625,0.001242307247593999,0.0017513097263872623,0.0028701627161353827
1761140446922949600,5.77494970703125,0.0004979537334293127,-0.00032169464975595474,0.0006134000141173601
1761140446933009700,5.785009765625,0.0014168620109558105,-0.0004707779735326767,-0.0005895025096833706
1761140446943068700,5.795068603515625,0.0008639897569082677,0.001482650637626648,0.001676048617810011
1761140446953127700,5.805127685546875,-0.0013426310615614057,0.0013909302651882172,-0.0023960191756486893
1761140446963187700,5.815187744140625,-0.004025499802082777,0.00006281211972236633,-0.0016260992269963026
1761140446973246500,5.82524658203125,-0.0007460666238330305,0.000735107809305191,0.0025601591914892197
1761140446983306800,5.835306640625,0.000335176766384393,-0.002073994604870677,0.0006224431563168764
1761140446993365800,5.84536572265625,-0.0021163669880479574,0.0011405972763895988,0.00045965853496454656
1761140447003424800,5.8554248046875,0.000521494192071259,0.0005224775522947311,0.0019433056004345417
1761140447013484800,5.86548486328125,-0.002353265415877104,0.000013654585927724838,0.0012629625853151083
1761140447023543600,5.87554345703125,0.0001213437644764781,-0.0005733063444495201,0.0006525660282932222
1761140447033603600,5.885603515625,0.0005950649501755834,-0.0009322976693511009,-0.0011054158676415682
1761140447043662800,5.895662841796875,0.00010104855755344033,-0.0003570546396076679,-0.0012199317570775747
1761140447053721600,5.9057216796875,0.00002526358002796769,0.0011179628781974316,0.002381632337346673
1761140447063781600,5.91578173828125,0.00016774272080510855,0.0024538044817745686,0.002017578110098839
1761140447073840600,5.925840576171875,0.00033616460859775543,0.000058930832892656326,0.004859799053519964
1761140447083900700,5.935900634765625,-0.00018102122703567147,-0.00030139461159706116,0.006285921670496464
1761140447093959700,5.945959716796875,0.0010058401385322213,-0.000030661001801490784,0.002933468669652939
1761140447104018700,5.956018798828125,-0.00031109299743548036,0.00019570766016840935,0.001054076012223959
1761140447114078700,5.96607861328125,0.0006462453166022897,-0.0002509532496333122,0.0020041861571371555
1761140447124137700,5.9761376953125,-0.002239023335278034,-0.000039764679968357086,0.00013278279220685363
1761140447134197800,5.98619775390625,-0.0015566780930384994,-0.0019482395146042109,0.0017828299896791577
1761140447144256500,5.996256591796875,-0.0003790281480178237,-0.0023788725957274437,-0.0002166713820770383
1761140447154315800,6.006315673828125,-0.0002932208008132875,-0.0012873993255198002,0.00119886570610106
1761140447164375800,6.016375732421875,-0.0018040321301668882,0.002908144611865282,-0.00045868573943153024
1761140447174434600,6.0264345703125,0.0003086212673224509,0.00011532427743077278,0.001844948623329401
1761140447184493800,6.036493896484375,-0.001589147374033928,0.00022078538313508034,0.0009549201349727809
1761140447194553600,6.0465537109375,0.0015141271287575364,-0.0006519397720694542,-0.0018839233089238405
1761140447204612600,6.056612548828125,0.00006696541095152497,0.0010679294355213642,-0.0009978895541280508
1761140447214672600,6.066672607421875,0.00082039536209777,0.0026580002158880234,-0.002775436732918024
1761140447224731600,6.076731689453125,-0.0011793721932917833,0.00023026298731565475,0.0017255719285458326
1761140447234790700,6.086790771484375,-0.0003691433812491596,0.00011366140097379684,-0.0015968516236171126
1761140447244850700,6.0968505859375,0.0012436669785529375,-0.0007918132469058037,-0.0003499597078189254
1761140447254909700,6.10690966796875,0.0011732642306014895,0.0006443844176828861,0.001260051503777504
1761140447264969500,6.116969482421875,-0.0004201050032861531,0.0010851374827325344,-0.0009905860060825944
1761140447275028700,6.12702880859375,0.00010339770233258605,0.0009179962798953056,-0.0014131059870123863
1761140447285087500,6.13708740234375,0.0008299080654978752,-0.0010958858765661716,0.001465238630771637
1761140447295147800,6.147147705078125,-0.0011610169894993305,-0.001867660554125905,0.0007330243824981153
1761140447305206800,6.157206787109375,0.001473648240789771,-0.0002508554607629776,0.0005761642241850495
1761140447315266600,6.1672666015625,-0.0006992043345235288,0.001191664021462202,-0.0007045625243335962
1761140447325325800,6.177325927734375,-0.00032449752325192094,-0.0014922695700079203,0.0005796137847937644
1761140447335384600,6.187384521484375,0.0001659073168411851,0.0003513800911605358,0.001223015133291483
1761140447345444600,6.197444580078125,-0.0015885832253843546,0.002109598834067583,-0.0016132513992488384
1761140447355503600,6.207503662109375,-0.0013439231552183628,-0.0010359571315348148,-0.0025215980131179094
1761140447365562600,6.217562744140625,0.00020390615100041032,0.0005291826091706753,0.0016491786809638143
1761140447375622700,6.22762255859375,-0.001691317418590188,0.0023444355465471745,0.0002860677195712924
1761140447385681700,6.237681640625,0.00042722729267552495,0.001155866775661707,-0.000015135796274989843
1761140447395741700,6.24774169921875,0.001374215935356915,-0.0015028659254312515,-0.001591375796124339
1761140447405800700,6.25780078125,-0.0001376605941914022,-0.0004423949867486954,0.0016254563815891743
1761140447415859700,6.267859619140625,-0.0006102764164097607,0.0004122592508792877,0.0010146612767130136
1761140447425919700,6.277919677734375,-0.0004907005350105464,0.001409346703439951,0.0008242452749982476
1761140447435978800,6.287978759765625,-0.000895787903573364,-0.0002763187512755394,0.00012544088531285524
1761140447446038800,6.298038818359375,-0.00008006166899576783,-0.0015035031829029322,-0.0022764638997614384
1761140447456097500,6.30809765625,0.00042730203131213784,-0.0005233604460954666,-0.002459509065374732
1761140447466156800,6.31815673828125,-0.0005926886224187911,-0.0007132436148822308,-0.001034451648592949
1761140447476216600,6.328216552734375,-0.0013456065207719803,-0.0018525929190218449,-0.002200488466769457
1761140447486275600,6.338275634765625,-0.0004406644147820771,0.0008811419829726219,0.0007910403655841947
1761140447496334600,6.34833447265625,-0.0026859224308282137,-0.0007119635120034218,-0.0007351888343691826
1761140447506394600,6.35839453125,0.0008643375476822257,0.00009710481390357018,-0.001352243241854012
1761140447516453600,6.36845361328125,0.0009124111384153366,-0.0000201445072889328,-0.0004330991650931537
1761140447526513700,6.378513671875,-0.0016913615399971604,0.0015069120563566685,0.0005940820556133986
1761140447536572700,6.38857275390625,-0.0011078421957790852,-0.0003009568899869919,-0.0016943830996751785
1761140447546631700,6.398631591796875,0.003301819786429405,0.0010798922739923,-0.00106747483368963
1761140447556691700,6.408691650390625,0.002091808244585991,-0.0007263589650392532,0.00048225061618722975
1761140447566750700,6.418750732421875,0.00026621134020388126,0.0007980344817042351,-0.002314334735274315
1761140447576810500,6.428810546875,0.0006050714291632175,-0.0007886812090873718,0.0005097350804135203
1761140447586869800,6.438869873046875,-0.0013174646301195025,0.0004899026826024055,-0.00008255196735262871
1761140447596928500,6.448928466796875,0.0015524326590821147,-0.00014936132356524467,-0.00011916033690795302
1761140447606988500,6.458988525390625,0.0006336420774459839,0.0009699654765427113,-0.0007452694117091596
1761140447617047800,6.4690478515625,0.000800232810433954,0.0005791541188955307,0.00046985302469693124
1761140447627107600,6.479107666015625,0.00015335099305957556,0.002371461596339941,-0.0017642726888880134
1761140447637166800,6.489166748046875,-0.0010269198101013899,0.00014484114944934845,-0.0018163667991757393
1761140447647225600,6.4992255859375,-0.0016916447784751654,-0.001296461559832096,0.0003197546466253698
1761140447657285600,6.50928564453125,0.001436899183318019,-0.0012342380359768867,0.0017095517832785845
1761140447667344600,6.5193447265625,-0.00033463549334555864,0.0005841683596372604,0.0012371069751679897
1761140447677403600,6.529403564453125,-0.0008331555873155594,0.00002694781869649887,0.0006114616408012807
1761140447687463700,6.539463623046875,-0.001727445051074028,-0.00020820926874876022,-0.002300438703969121
1761140447697522700,6.549522705078125,0.0016209183959290385,-0.0008554304949939251,-0.0009325540158897638
1761140447707582700,6.559582763671875,0.0010731061920523643,0.0006311461329460144,0.001644054427742958
1761140447717641500,6.569641357421875,-0.00031756190583109856,-0.00012336252257227898,-0.00019625906134024262
1761140447727700700,6.57970068359375,0.0009511680109426379,0.000991170760244131,0.0018828706815838814
1761140447737760800,6.5897607421875,-0.0007279214914888144,-0.0005589192733168602,-0.0007623238489031792
1761140447747819800,6.59981982421875,-0.0003351052291691303,0.0018949173390865326,0.0013682050630450249
1761140447757879800,6.6098798828125,0.0008027330623008311,-0.0004429998807609081,-0.001355319982394576
1761140447767938600,6.6199384765625,-0.0003746504080481827,-0.000751926563680172,-0.0005920580588281155
1761140447777997800,6.629997802734375,0.0011301018530502915,-0.0007443842478096485,-0.0001943567767739296
1761140447788057600,6.6400576171875,0.00024140498135238886,-0.0013707596808671951,-0.0029046558775007725
1761140447798116600,6.65011669921875,0.0005755623569712043,-0.0003073588013648987,-0.0003380186390131712
1761140447808175600,6.660175537109375,0.0035338017623871565,0.00044232094660401344,-0.0015548168448731303
1761140447818235600,6.670235595703125,-0.0004841176560148597,-0.00009926268830895424,0.0010571838356554508
1761140447828294700,6.680294677734375,0.00022561481455340981,0.0013833194971084595,0.0006270833546295762
1761140447838355000,6.69035498046875,-0.0012474326649680734,0.003104907926172018,0.0012990878894925117
1761140447848413700,6.70041357421875,0.0030165547505021095,-0.0015875815879553556,0.00039201517938636243
1761140447858472700,6.71047265625,0.0010610908502712846,0.0010381774045526981,-0.0014382326044142246
1761140447868533000,6.720532958984375,0.0008871864411048591,0.0020091659389436245,-0.0014795116148889065
1761140447878591700,6.730591796875,-0.000372069887816906,-0.0010668300092220306,0.0003638746275100857
1761140447888651800,6.74065185546875,0.0003232815070077777,0.0025625256821513176,-0.0011027281871065497
1761140447898710800,6.750710693359375,-0.001297272858209908,0.0025906567461788654,0.001019545248709619
1761140447908769800,6.760769775390625,-0.0005630393279716372,0.001074785366654396,-0.0027094129472970963
1761140447918829600,6.77082958984375,-0.002502358751371503,-0.0015099288430064917,-0.00020687788492068648
1761140447928888800,6.780888916015625,0.00038291013333946466,0.0005340473726391792,0.0006495947018265724
1761140447938948900,6.790948974609375,-0.001546654268167913,0.0015284810215234756,0.000786963093560189
1761140447949008000,6.8010078125,-0.00038977712392807007,0.00008797738701105118,0.0007222482818178833
1761140447959067000,6.81106689453125,0.0004102714010514319,0.00028739357367157936,0.0005094151711091399
1761140447969126700,6.821126708984375,-0.0010840282775461674,-0.0026157181710004807,-0.0001811424153856933
1761140447979186000,6.83118603515625,-0.0005758126499131322,-0.0023088245652616024,0.0012683592503890395
1761140447989244700,6.84124462890625,0.001108370372094214,-0.001465667737647891,0.002519778674468398
1761140447999304700,6.8513046875,-0.0007802583277225494,0.00020527513697743416,-0.0010528124403208494
1761140448009364000,6.861364013671875,-0.002717974130064249,0.0025081103667616844,0.000029496324714273214
1761140448019423700,6.871423828125,-0.0006864036549814045,-0.0004848404787480831,-0.0003901510499417782
1761140448029482800,6.881482666015625,0.00038338813465088606,0.0010374225676059723,-0.0018082844326272607
1761140448039541800,6.891541748046875,-0.0037941625341773033,-0.00033967290073633194,-0.00137399195227772
1761140448049601800,6.901601806640625,-0.0016298117116093636,0.0011026947759091854,-0.001626459532417357
1761140448059660800,6.911660888671875,-0.0002160412259399891,0.0012242631055414677,0.0019681500270962715
1761140448069720800,6.921720947265625,0.0005871681496500969,0.00016618892550468445,0.0010677353711798787
1761140448079779800,6.93177978515625,0.00014223967446014285,-0.00037507805973291397,0.0004963356186635792
1761140448089838800,6.9418388671875,-0.0000702805700711906,-0.00016788439825177193,0.0012161880731582642
1761140448099899000,6.95189892578125,-0.003150060074403882,0.0002986304461956024,0.0006344686262309551
1761140448109957600,6.96195751953125,0.0013490843120962381,-0.002692099427804351,0.0004006430972367525
1761140448120017000,6.972016845703125,0.001246814732439816,0.0004806048236787319,-0.002927265828475356
1761140448130077000,6.982076904296875,-0.0005713253049179912,0.0010920665226876736,-0.0019610710442066193
1761140448140135700,6.9921357421875,-0.000025110843125730753,0.0005423007532954216,-0.0018109905067831278
1761140448150195700,7.00219580078125,0.00036903703585267067,0.0015212786383926868,-0.0020488107111305
1761140448160254700,7.012254638671875,0.00030314194737002254,0.001604543998837471,0.0000029212678782641888
1761140448170313700,7.022313720703125,0.0015550940297544003,0.002145165577530861,0.0007856243173591793
1761140448180374000,7.0323740234375,0.0010304662864655256,0.0008084909059107304,-0.0002564180758781731
1761140448190432800,7.042432861328125,0.0009857252007350326,0.0011001070961356163,-0.0019419328309595585
1761140448200492800,7.052492919921875,-0.000961422745604068,0.0008533741347491741,0.0011322398204356432
1761140448210551800,7.0625517578125,-0.0011704808566719294,0.0020166425965726376,-0.00040786631871014833
1761140448220610800,7.07261083984375,-0.0008634713594801724,-0.0009807422757148743,-0.0023429477587342262
1761140448230670600,7.082670654296875,0.001680912682786584,0.0032547488808631897,0.0019306268077343702
1761140448240729900,7.092729736328125,0.0012802340788766742,-0.0024742032401263714,0.0010588947916403413
1761140448250788600,7.10278857421875,0.0001952622551470995,0.0001301020383834839,-0.005286353174597025
1761140448260848600,7.1128486328125,0.0004969726433046162,-0.0014251458924263716,0.006535613909363747
1761140448270908000,7.122907958984375,0.0002258628373965621,-0.0005646785721182823,0.005376872606575489
1761140448280967700,7.1329677734375,0.003381306305527687,-0.0015585124492645264,-0.0014052910264581442
1761140448291027000,7.14302685546875,0.0017314781434834003,0.0003104940988123417,-0.0012644098605960608
1761140448301085700,7.153085693359375,-0.0005454284837469459,-0.0004878719337284565,0.005106055643409491
1761140448311145700,7.163145751953125,-0.0011984355514869094,0.0035300394520163536,-0.000029318092856556177
1761140448321205000,7.173205078125,0.0005628488725051284,-0.004722917452454567,-0.0012335620122030377
1761140448331264800,7.1832646484375,-0.0017391873989254236,-0.0010368358343839645,-0.0025057541206479073
1761140448341323800,7.19332373046875,-0.000982029247097671,0.000812093261629343,0.00039481185376644135
1761140448351382800,7.2033828125,-0.0015487498603761196,0.0004674806259572506,-0.0004376922734081745
1761140448361442800,7.21344287109375,0.0003907869104295969,-0.00036082323640584946,-0.00292798038572073
1761140448371501600,7.22350146484375,0.00011621502926573157,0.0006344001740217209,0.0019519957713782787
1761140448381560800,7.233560791015625,0.0013868524692952633,0.001661109272390604,0.0010163936531171203
1761140448391620900,7.243620849609375,0.0008550192578695714,0.0009838673286139965,-0.0031147017143666744
1761140448401680000,7.253679931640625,-0.0016013853019103408,-0.003578879637643695,-0.0013773927930742502
1761140448411740000,7.263739990234375,-0.00180671492125839,0.004240161739289761,0.0026016361080110073
1761140448421798700,7.273798583984375,0.0003280544769950211,0.0002734968438744545,0.0008927009184844792
1761140448431858000,7.28385791015625,-0.001118041924200952,-0.0004964233376085758,-0.00012462661834433675
1761140448441918000,7.29391796875,0.00033907947363331914,0.0015286407433450222,0.001318859402090311
1761140448451976700,7.303976806640625,0.0006610556738451123,0.0014825677499175072,-0.0006177913164719939
1761140448462036000,7.314035888671875,-0.001637337845750153,0.0003892304375767708,-0.00154969934374094
1761140448472095700,7.324095703125,0.0008292818092741072,-0.0002802885137498379,0.0008974793599918485
1761140448482154800,7.33415478515625,0.00031909486278891563,-0.0007259398698806763,0.00016099214553833008
1761140448492214800,7.34421484375,0.00015903887106105685,0.000038387253880500793,0.0006094684940762818
1761140448502273800,7.354273681640625,-0.00028565595857799053,0.0006370632909238338,0.0023168488405644894
1761140448512332800,7.364332763671875,-0.0003487729700282216,-0.00020183250308036804,0.0009274777839891613
1761140448522392800,7.374392822265625,0.0001360609894618392,0.0005170619115233421,0.0012815071968361735
1761140448532451800,7.384451904296875,-0.0006277336506173015,0.0015122853219509125,-0.00237687723711133
1761140448542511600,7.39451171875,-0.0010385549394413829,-0.0006344690918922424,-0.0011185203911736608
1761140448552571000,7.40457080078125,-0.0017070084577426314,0.0008747442625463009,-0.0006154492730274796
1761140448562629600,7.414629638671875,-0.00267278915271163,0.0015323963016271591,0.0020951232872903347
1761140448572689700,7.424689697265625,-0.0005771477590315044,0.0006109424866735935,0.0019324042368680239
1761140448582749000,7.4347490234375,0.002382742241024971,-0.0006135813891887665,-0.0028330287896096706
1761140448592807700,7.4448076171875,0.0008082814747467637,-0.0007355539128184319,-0.001525683095678687
1761140448602868000,7.454867919921875,0.00017881212988868356,-0.0007334956899285316,-0.0003530725953169167
1761140448612926700,7.4649267578125,-0.0012134884018450975,-0.0017505567520856857,-0.0001783692860044539
1761140448622986800,7.47498681640625,0.00003567320527508855,0.0002638762816786766,-0.002954165218397975
1761140448633046000,7.4850458984375,-0.0012951083481311798,0.0005443072877824306,-0.0031230098102241755
1761140448643104800,7.495104736328125,-0.0004922851803712547,0.0012134574353694916,-0.0015203306684270501
1761140448653164800,7.505164794921875,-0.0015964317135512829,0.001122110988944769,-0.0028132954612374306
1761140448663223800,7.515223876953125,0.000451823027106002,-0.00039192941039800644,-0.001708388328552246
1761140448673283800,7.525283935546875,-0.0006110445829108357,-0.0010896772146224976,0.003186235437169671
1761140448683342600,7.535342529296875,-0.0002574000973254442,-0.0014986814931035042,-0.0016894417349249125
1761140448693401900,7.54540185546875,-0.002034261357039213,-0.001930113648995757,-0.0003072611871175468
1761140448703462000,7.5554619140625,-0.0005535975215025246,-0.0005806302651762962,-0.0031361801084131002
1761140448713520600,7.565520751953125,0.001310881576500833,-0.000891953706741333,0.000019932223949581385
1761140448723580000,7.575579833984375,0.0017453470500186086,-0.000471330713480711,-0.00018723902758210897
1761140448733639700,7.5856396484375,0.0005245540523901582,0.000018691178411245346,-0.0013542361557483673
1761140448743699000,7.595698974609375,-0.0009510786621831357,-0.0008016210049390793,-0.0008664661436341703
1761140448753759000,7.605759033203125,-0.0009039407013915479,0.0006996029987931252,-0.003593010362237692
1761140448763817700,7.615817626953125,-0.001500836806371808,0.0014917552471160889,-0.002127141458913684
1761140448773877000,7.625876953125,0.00011223985347896814,-0.0019780772272497416,-0.0004426921368576586
1761140448783936800,7.635936767578125,-0.0014992612414062023,0.00023082876577973366,-0.001172421034425497
1761140448793995800,7.645995849609375,-0.00041908310959115624,0.0012452267110347748,-0.0019953378941863775
1761140448804055800,7.656055908203125,-0.00002238288288936019,0.0013656765222549438,-0.0015033716335892677
1761140448814114800,7.66611474609375,-0.002664238680154085,0.00007244572043418884,0.00002048915484920144
1761140448824173000,7.676173095703125,-0.0006531376275233924,-0.001180924940854311,0.00116509769577533
1761140448834233000,7.686233154296875,-0.0017365114763379097,-0.0002187248319387436,-0.002286358969286084
1761140448844292000,7.6962919921875,0.0021852655336260796,-0.0014695716090500355,0.00004578847438097
1761140448854351000,7.70635107421875,-0.001612135674804449,-0.002161194570362568,-0.0038576065562665462
1761140448864411100,7.7164111328125,0.0002783216186799109,0.0008523422293365002,-0.002301051514223218
1761140448874470000,7.726469970703125,-0.001036747358739376,-0.002057427540421486,-0.0010986343258991838
1761140448884530200,7.7365302734375,0.0012997376034036279,0.000763030257076025,-0.0002553041558712721
1761140448894589200,7.746589111328125,0.0024957633577287197,-0.0024631228297948837,-0.0009477260755375028
1761140448904648200,7.756648193359375,-0.001390577177517116,0.001681474968791008,-0.0014984544832259417
1761140448914708200,7.766708251953125,-0.00034209073055535555,-0.0022879664320498705,-0.001017221249639988
1761140448924767000,7.77676708984375,0.001295991474762559,-0.00033789174631237984,-0.0013957321643829346
1761140448934826200,7.786826171875,0.0005748075200244784,-0.00250437343493104,-0.0007507144473493099
1761140448944886300,7.79688623046875,0.00031203642720356584,0.000583685003221035,-0.0018457347759976983
1761140448954945000,7.806945068359375,0.00048753872397355735,-0.00017105462029576302,0.0005596323171630502
1761140448965005000,7.817005126953125,0.0007547552813775837,0.0006288588047027588,0.0015584009233862162
1761140448975064000,7.82706396484375,-0.0009834900265559554,0.001885338220745325,-0.0012991710100322962
1761140448985123000,7.837123046875,-0.002665337175130844,0.00021832110360264778,0.0010062695946544409
1761140448995183000,7.84718310546875,-0.001984366914257407,-0.0013036755844950676,0.0009628600091673434
1761140449005242000,7.8572421875,0.00019415258429944515,0.0027549159713089466,0.0007961058290675282
1761140449015302100,7.86730224609375,-0.0009283698163926601,-0.0179293230175972,-0.0006350768962875009
1761140449025361200,7.877361083984375,-0.001276060938835144,0.0027881329879164696,-0.0008481185650452971
1761140449035420200,7.887420166015625,-0.00002863642293959856,-0.002490518381819129,0.00017160578863695264
1761140449045480000,7.89747998046875,0.0005220521125011146,0.003852234687656164,0.0024783392436802387
1761140449055539200,7.907539306640625,0.00018835801165550947,-0.0004871198907494545,0.0002918840036727488
1761140449065598000,7.917597900390625,0.0005939442198723555,0.000848173163831234,0.0007838445017114282
1761140449075658000,7.927657958984375,-0.00140955182723701,0.0036362363025546074,0.003025160636752844
1761140449085717200,7.93771728515625,-0.00020842946832999587,0.0026965192519128323,-0.00033786334097385406
1761140449095777000,7.947777099609375,0.0005830620648339391,0.0024054362438619137,-0.001153056975454092
1761140449105836000,7.9578359375,-0.0013778589200228453,0.001998972613364458,-0.0006786647718399763
1761140449115895000,7.96789501953125,0.001363332848995924,0.0015302561223506927,0.0004470533749554306
1761140449125955000,7.977955078125,-0.0011176038533449173,0.0020105643197894096,0.0010437638266012073
1761140449136014000,7.98801416015625,-0.00041319773299619555,-0.0012800374533981085,-0.0007368256920017302
1761140449146073000,7.998072998046875,-0.00013893225695937872,-0.002125360071659088,0.00087511952733621
1761140449156133000,8.008133056640625,-0.0012476062402129173,0.0022368980571627617,0.000446616904810071
1761140449166192000,8.018192138671875,0.0013455045409500599,0.004136997275054455,0.00037216677446849644
1761140449176252200,8.028252197265624,-0.001070248894393444,-0.0012436530087143183,-0.0003737846272997558
1761140449186311000,8.038310791015626,-0.0013522442895919085,-0.006584430579096079,-0.0034074289724230766
1761140449196370200,8.0483701171875,0.00016389315715059638,0.009309048764407635,0.005493121687322855
1761140449206430200,8.05843017578125,0.0012793526984751225,-0.00031252671033143997,0.000018632097635418177
1761140449216489000,8.068489013671876,0.000611431896686554,0.0034643681719899178,-0.008475786074995995
1761140449226549200,8.07854931640625,0.0003093764535151422,-0.00006937794387340546,-0.001463975990191102
1761140449236608000,8.08860791015625,-0.0026624449528753757,0.0013514184392988682,0.007480250671505928
1761140449246667300,8.098667236328126,-0.00044201809214428067,0.0010111210867762566,-0.0023499871604144573
1761140449256727000,8.10872705078125,-0.00042737071635201573,-0.004251817706972361,-0.004778523929417133
1761140449266786000,8.1187861328125,0.0005682887276634574,-0.0012259911745786667,0.006182518787682056
1761140449276845000,8.128844970703126,-0.0004999051452614367,0.00546307023614645,0.004675169475376606
1761140449286905000,8.138905029296875,-0.002186729572713375,0.00461821211501956,-0.0005439758533611894
1761140449296964000,8.148964111328125,-0.0011832506861537695,-0.000468425452709198,-0.004363215062767267
1761140449307024100,8.159024169921874,0.0009790337644517422,0.0005160914734005928,0.0020213990937918425
1761140449317083100,8.169083251953126,0.0006812923238612711,-0.001381144393235445,0.0014384330715984106
1761140449327142000,8.179141845703125,-0.001252567395567894,0.0010374318808317184,-0.0001603586715646088
1761140449337202200,8.1892021484375,-0.001036318950355053,-0.004274775739759207,-0.0015966014470905066
1761140449347261200,8.19926123046875,-0.000020749634131789207,-0.000010526739060878754,0.004983057267963886
1761140449357320200,8.2093203125,0.0005342531367205083,-0.0005748504772782326,-0.0010900149354711175
1761140449367380200,8.219380126953125,0.0019938787445425987,-0.0014014935586601496,0.0008452772744931281
1761140449377439000,8.22943896484375,-0.0006612927536480129,0.0016156015917658806,0.001794161507859826
1761140449387499000,8.2394990234375,-0.0018106165807694197,0.0010699769482016563,-0.0018993804696947336
1761140449397558000,8.24955810546875,0.00016092153964564204,-0.002876295242458582,0.000244996917899698
1761140449407617000,8.259616943359376,0.0012804287252947688,0.0015481719747185707,0.0039666942320764065
1761140449417677000,8.269677001953125,0.001031156862154603,0.0009678690694272518,-0.00004722242010757327
1761140449427736000,8.279736083984375,-0.00030030676862224936,0.00031480658799409866,-0.00012394291115924716
1761140449437796000,8.289796142578124,0.00001367996446788311,0.0016682250425219536,0.00007819099118933082
1761140449447855000,8.299855224609376,-0.0020095508079975843,0.001964637078344822,0.001960261957719922
1761140449457914000,8.3099140625,0.0011268539819866419,0.001654911320656538,-0.000200094364117831
1761140449467974100,8.31997412109375,-0.0016521220095455647,-0.00028546806424856186,-0.00013030663831159472
1761140449478033200,8.330033203125,-0.001991675002500415,0.00300540030002594,-0.002041391097009182
1761140449488092200,8.340092041015625,-0.00225688423961401,0.002894827164709568,0.0005189785733819008
1761140449498152000,8.35015185546875,-0.001365258009172976,0.001516108401119709,0.0014774501323699951
1761140449508211200,8.360211181640626,0.0005662460462190211,-0.002470003440976143,0.001558719202876091
1761140449518271000,8.37027099609375,-0.0014598867855966091,0.001816354226320982,-0.0002991019282490015
1761140449528330000,8.380330078125,-0.0006911790114827454,0.002122194040566683,-0.002332377014681697
1761140449538389200,8.39038916015625,-0.001234730239957571,0.0005690385587513447,0.0035356320440769196
1761140449548449000,8.400448974609375,0.00146074581425637,0.0029889997094869614,-0.0014755742158740759
1761140449558508000,8.410508056640625,-0.00025885726790875196,0.00013302545994520187,0.0005039534298703074
1761140449568567000,8.420567138671874,0.0006544829811900854,0.002313033677637577,-0.0014090398326516151
1761140449578627000,8.430626953125,-0.000259780150372535,0.000505013857036829,0.0007755511905997992
1761140449588686000,8.44068603515625,-0.000826326955575496,0.0026414571329951286,-0.0014778375625610352
1761140449598746000,8.45074609375,-0.00021433254005387425,0.0007961527444422245,-0.0027873138897120953
1761140449608805000,8.46080517578125,0.0010789019288495183,0.00017520692199468613,-0.0003891799133270979
1761140449618864000,8.470864013671875,0.00006530288374051452,-0.00021840818226337433,0.0020484114065766335
1761140449628924200,8.480924072265625,0.0013664758298546076,-0.0011059865355491638,0.0003581243217922747
1761140449638983000,8.49098291015625,-0.001642896211706102,0.0018282844685018063,0.0010457525495439768
1761140449649042200,8.501042236328125,0.0009795954683795571,0.0013501415960490704,0.002364311832934618
1761140449659102200,8.511102294921875,-0.0011711735278367996,-0.001206226646900177,-0.0006458591087721288
1761140449669161000,8.521160888671876,-0.0005364106618799269,0.0017380574718117714,-0.00016586045967414975
1761140449679221200,8.53122119140625,-0.0004991264431737363,0.0003156629391014576,-0.001381061039865017
1761140449689280000,8.541280029296875,0.0022765537723898888,-0.0015651688445359468,0.0004311552329454571
1761140449699339300,8.55133935546875,-0.0014361588982865214,0.0018487372435629368,0.0002655066200532019
1761140449709399000,8.56139892578125,0.002649510046467185,0.001963782124221325,0.001469949958845973
1761140449719458000,8.5714580078125,0.00018528709188103676,0.0010074409656226635,0.0007514291210100055
1761140449729518000,8.58151806640625,0.001752584590576589,0.0027732797898352146,-0.0011495065409690142
1761140449739577000,8.5915771484375,0.0011709502432495356,0.0007034712471067905,0.0008846158161759377
1761140449749636000,8.601635986328125,0.0005645006895065308,-0.003534414805471897,-0.0017131445929408073
1761140449759696100,8.611696044921874,-0.0017449926817789674,0.0004928172565996647,-0.0016873120330274105
1761140449769755100,8.621755126953126,0.00031804805621504784,-0.005442515015602112,0.000004893518052995205
1761140449779814000,8.63181396484375,-0.0005221792380325496,-0.000009133480489253998,0.002027298090979457
1761140449789874200,8.641874267578125,-0.00023378076730296016,0.004999727010726929,0.0015578360762447119
1761140449799933200,8.65193310546875,-0.0008260676986537874,-0.001370820915326476,-0.0027018901892006397
1761140449809993000,8.661992919921875,-0.000985700055025518,0.0026339152827858925,0.004360332619398832
1761140449820052200,8.67205224609375,-0.00018701807130128145,-0.0020039796363562346,-0.0023223375901579857
1761140449830111000,8.682111083984376,0.0014152219519019127,0.0011847689747810364,0.0004413649148773402
1761140449840171000,8.6921708984375,0.0004479619092307985,0.002036447636783123,0.0008376432815566659
1761140449850230000,8.70222998046875,0.00041433877777308226,0.004360388033092022,-0.0004843304632231593
1761140449860289000,8.7122890625,-0.001297541195526719,-0.005252025555819273,-0.0003967124503105879
1761140449870349000,8.72234912109375,0.0014516259543597698,0.000529430340975523,0.005665482487529516
1761140449880408000,8.732407958984375,-0.0007478786865249276,-0.002962772734463215,-0.00021930428920313716
1761140449890468000,8.742468017578124,-0.0007681648712605238,-0.0005045691505074501,0.0015040123835206032
1761140449900527000,8.752527099609376,-0.0020478139631450176,0.0010222210548818111,0.00031890562968328595
1761140449910586000,8.762586181640625,-0.0008321966743096709,0.0005754502490162849,0.00149061088450253
1761140449920646000,8.77264599609375,0.0020927530713379383,-0.0004546600393950939,-0.0010734807001426816
1761140449930705200,8.782705078125,-0.0030587383080273867,-0.0015891226939857006,0.0016723712906241417
1761140449940764000,8.792763916015625,-0.002009186428040266,-0.0021569086238741875,-0.0027487424667924643
1761140449950824000,8.802823974609375,-0.006814826745539904,0.0003547794185578823,-0.0013444663491100073
1761140449960883200,8.81288330078125,-0.057285990566015244,-0.0006654774770140648,0.0010257471585646272
1761140449970943000,8.82294287109375,-0.22021479904651642,0.0029335650615394115,0.0016101348446682096
1761140449981002000,8.833001953125,-0.21267564594745636,0.0004413789138197899,0.0029262688476592302
1761140449991061000,8.84306103515625,-0.13548465073108673,0.0022677211090922356,-0.00011191319208592176
1761140450001121000,8.85312109375,-0.10677044838666916,0.0009750225581228733,0.003891616826876998
1761140450011180300,8.86318017578125,-0.10414017736911774,-0.0036345357075333595,-0.000153894885443151
1761140450021239000,8.873239013671874,-0.033835917711257935,-0.00023927167057991028,0.0016985998954623938
1761140450031299000,8.883299072265626,-0.0000237020431086421,-0.0037492117844522,0.0010883253999054432
1761140450041358000,8.893358154296875,0.0009531454415991902,0.0004215645603835583,-0.0016478062607347965
1761140450051418000,8.903418212890625,-0.00044213765067979693,0.0006567239761352539,0.0009226510883308947
1761140450061476900,8.913476806640626,0.001146171591244638,-0.00026446348056197166,0.0020853872410953045
1761140450071536000,8.9235361328125,0.00148231559433043,-0.0005771201103925705,-0.0028832480311393738
1761140450081596200,8.93359619140625,0.0004125237464904785,-0.001539586577564478,-0.000779883295763284
1761140450091655000,8.943655029296876,0.0011906683212146163,0.0004065493121743202,0.00044047037954442203
1761140450101714200,8.953714111328125,-0.0022767672780901194,0.000712013803422451,0.0004005229566246271
1761140450111774000,8.96377392578125,-0.0011322794016450644,0.0014232378453016281,-0.00048800563672557473
1761140450121833000,8.9738330078125,0.0013636351795867085,0.0001095007173717022,-0.00011436408385634422
1761140450131893200,8.983893310546875,0.0024071254301816225,-0.0014450401067733765,-0.0007612955523654819
1761140450141952000,8.993951904296875,-0.0006387318135239184,-0.0006002853624522686,-0.0008845999836921692
1761140450152011300,9.00401123046875,-0.0008455099887214601,-0.001142716035246849,0.000266175193246454
1761140450162071000,9.014071044921875,-0.0007829256937839091,-0.0006774617359042168,0.003188728354871273
1761140450172130000,9.024130126953125,0.0008085576118901372,-0.000024882610887289047,-0.0002785628312267363
1761140450182189000,9.03418896484375,0.0010224094148725271,0.0005500940605998039,0.0021108253858983517
1761140450192249000,9.0442490234375,-0.0011990610510110855,0.0007869559340178967,-0.0015602463390678167
1761140450202307800,9.054307861328125,-0.0013324853498488665,0.000729431863874197,-0.0012337425723671913
1761140450212368100,9.0643681640625,0.00033578259171918035,0.0021275384351611137,0.0008056575316004455
1761140450222427100,9.07442724609375,-0.0010916718747466803,-0.0021678742486983538,-0.00018051103688776493
1761140450232486000,9.08448583984375,-0.0001824467326514423,0.0020997370593249798,-0.0011119642294943333
1761140450242546200,9.094546142578125,0.0004338087164796889,0.0009769485332071781,-0.0016278184484690428
1761140450252605000,9.10460498046875,-0.00027369806775823236,0.0004062820225954056,-0.0007022479549050331
1761140450262664200,9.114664306640625,-0.0004020623746328056,-0.002044358989223838,0.0006037662387825549
1761140450272724200,9.12472412109375,-0.001727368449792266,-0.001032301690429449,0.0006788901519030333
1761140450282783000,9.134782958984376,-0.0006309449090622365,0.0027182274498045444,0.0002562465379014611
1761140450292843000,9.144843017578125,-0.00005303893703967333,-0.0011239140294492245,-0.0007831855909898877
1761140450302902000,9.154902099609375,-0.001697807339951396,-0.002091973088681698,-0.00037891766987740993
1761140450312961000,9.1649609375,-0.0006204837118275464,-0.0014015212655067444,0.0023901157546788454
1761140450323021000,9.17502099609375,0.00009324343409389257,0.0015761591494083405,0.0002084542065858841
1761140450333080000,9.185080078125,0.0005906688747927547,-0.0005525033921003342,-0.0002602862659841776
1761140450343138800,9.195138916015624,-0.0007901801145635545,-0.000854772049933672,-0.0004797307774424553
1761140450353199000,9.20519921875,0.001587191130965948,0.001123314257711172,0.0005250322865322232
1761140450363258000,9.215258056640625,-0.0012698480859398842,-0.0002889600582420826,-0.002872628625482321
1761140450373318000,9.22531787109375,-0.0003443030291236937,0.0007723663002252579,0.00008560990681871772
1761140450383377200,9.235377197265626,0.00025144609389826655,-0.0005176686681807041,0.000016900303307920694
1761140450393436000,9.245435791015625,0.0004023415385745466,-0.0018646931275725365,-0.00021057977573946118
1761140450403496000,9.255495849609375,0.0003602636279538274,-0.0033930812496691942,0.0017947806045413017
1761140450413555200,9.26555517578125,0.0014600944705307484,-0.002281749853864312,-0.003280309960246086
1761140450423614000,9.275614013671875,0.00015381397679448128,-0.000584783498197794,-0.0007242078427225351
1761140450433674000,9.285674072265625,0.000758437265176326,-0.00078547652810812,-0.0011952489148825407
1761140450443733000,9.29573291015625,0.00025243667187169194,0.002396468073129654,-0.0009821958374232054
1761140450453793000,9.30579296875,0.00022989470744505525,-0.0018943680915981531,-0.0005221437895670533
1761140450463852000,9.31585205078125,-0.00010539725190028548,-0.0011516124941408634,0.0007255471427924931
1761140450473911000,9.3259111328125,0.00022143812384456396,-0.001763652777299285,0.0008742472855374217
1761140450483971000,9.33597119140625,-0.0006518124719150364,0.000004952307790517807,-0.0009771822951734066
1761140450494030000,9.346030029296875,-0.0013682355638593435,0.00031776493415236473,0.0008821876253932714
1761140450504089000,9.356089111328124,-0.0011570467613637447,0.001034421380609274,-0.0019412955734878778
1761140450514148900,9.36614892578125,0.0018790315371006727,0.0010750624351203442,-0.0004164905403740704
1761140450524208000,9.3762080078125,0.00005583144957199693,-0.0009630550630390644,-0.000706508697476238
1761140450534267000,9.386266845703124,-0.002057972364127636,0.001277729868888855,0.0022080314811319113
1761140450544327000,9.396326904296876,-0.00010321213630959392,0.0005405666306614876,0.0011406363919377327
1761140450554386200,9.40638623046875,-0.0017587295733392239,-0.00893794558942318,-0.003675156971439719
1761140450564446000,9.416446044921875,-0.0028136076871305704,-0.10680991411209106,-0.021913284435868263
1761140450574505200,9.426505126953124,-0.006064028479158878,-0.07340200245380402,-0.01581202633678913
1761140450584564000,9.43656396484375,-0.03203384205698967,-0.06038180738687515,-0.011810359545052052
1761140450594624000,9.4466240234375,-0.4066283106803894,-0.0713990330696106,-0.01488369982689619
1761140450604683300,9.456683349609374,-0.9991201758384705,-0.09817445278167725,-0.020461156964302063
1761140450614742000,9.466741943359375,-1.4703341722488403,-0.04942123964428902,-0.012882843613624573
1761140450624802000,9.476802001953125,-1.7785769701004028,-0.011342832818627357,-0.005245962645858526
1761140450634861000,9.486861083984374,-1.8087748289108276,0.09497742354869843,0.019174985587596893
1761140450644921000,9.496921142578126,-1.459684133529663,0.11685928702354431,0.022310325875878334
1761140450654979800,9.506979736328125,-0.8742801547050476,-0.05102697014808655,-0.016157031059265137
1761140450665039000,9.5170390625,-0.3925625681877136,0.027472633868455887,0.005996474996209145
1761140450675099100,9.52709912109375,-0.03936069831252098,0.0015628989785909653,0.002506838645786047
1761140450685158000,9.537157958984375,0.03704991936683655,0.031113866716623306,0.004030965734273195
1761140450695217200,9.547217041015625,0.0004609729803632945,0.04284610599279404,0.006830916274338961
1761140450705277000,9.55727685546875,-0.0013193502090871334,-0.008397374302148819,-0.0032286420464515686
1761140450715336200,9.567336181640625,-0.007949897088110447,-0.02625935710966587,-0.006018448621034622
1761140450725396200,9.577396240234375,-0.052177544683218,-0.04197387397289276,-0.011918416246771812
1761140450735455000,9.587455078125,-0.1922394037246704,-0.016097109764814377,-0.005048064980655909
1761140450745514200,9.59751416015625,-0.3949195146560669,0.015599035657942295,0.013574887998402119
1761140450755574000,9.607573974609375,-0.5860803127288818,0.006931782700121403,0.0014614275423809886
1761140450765633000,9.617633056640624,-0.7395473718643188,0.020798329263925552,0.0019381335005164146
1761140450775692000,9.627692138671875,-0.8485545516014099,0.013427548110485077,0.002597361570224166
1761140450785752000,9.637751953125,-0.902945339679718,0.0253667663782835,0.009882171638309956
1761140450795810800,9.647810791015624,-0.8406352400779724,0.0525701530277729,0.010511260479688644
1761140450805871000,9.65787109375,-0.6580329537391663,0.035425521433353424,0.008583931252360344
1761140450815930000,9.66793017578125,-0.41781124472618103,0.028847839683294296,0.007841416634619236
1761140450825989000,9.677989013671874,-0.19906796514987946,0.009579069912433624,0.0018477062694728374
1761140450836049400,9.68804931640625,-0.053019702434539795,0.006881606299430132,0.002657645847648382
1761140450846108400,9.6981083984375,0.011781665496528149,-0.003140934044495225,-0.002183448290452361
1761140450856167400,9.70816748046875,0.004416854120790958,-0.0061606899835169315,-0.001217033714056015
1761140450866227500,9.7182275390625,-0.0060163456946611404,-0.012908075004816055,-0.0033169363159686327
1761140450876286200,9.7282861328125,-0.009695257991552353,-0.022287357598543167,-0.004071799106895924
1761140450886346200,9.73834619140625,-0.02647130750119686,-0.027449628338217735,-0.005292325746268034
1761140450896405200,9.7484052734375,-0.06557849794626236,-0.03354906663298607,-0.005146384239196777
1761140450906464300,9.75846435546875,-0.13462254405021667,-0.029970576986670494,-0.007005004677921534
1761140450916524300,9.768524169921875,-0.21978852152824402,-0.014637746848165989,-0.003867050167173147
1761140450926583300,9.778583251953124,-0.29342544078826904,-0.0030034612864255905,0.0004075895994901657
1761140450936642300,9.788642333984376,-0.32829198241233826,0.008997752331197262,0.0011700284667313099
1761140450946702300,9.798702392578125,-0.3260458707809448,0.008603604510426521,0.0038856538012623787
1761140450956761300,9.80876123046875,-0.2942154109477997,0.0088090430945158,0.002140290569514036
1761140450966821400,9.8188212890625,-0.2540022134780884,0.008185597136616707,-0.00153700215741992
1761140450976880400,9.82888037109375,-0.19266508519649506,0.0051653580740094185,0.0009595174924470484
1761140450986939400,9.838939453125,-0.1211022213101387,0.009183002635836601,-0.0001294490648433566
1761140450996999200,9.848999267578124,-0.04029064252972603,0.011839080601930618,0.002945509972050786
1761140451007058400,9.859058349609375,-0.0012130152899771929,0.01654541864991188,0.0023079493548721075
1761140451017117200,9.8691171875,0.000877480604685843,0.010730033740401268,0.0013464747462421656
1761140451027177200,9.87917724609375,-0.0007720813737250865,0.009673290885984898,0.000030873226933181286
1761140451037236500,9.889236572265625,-0.00011667743092402816,0.005350180901587009,0.002916141878813505
1761140451047296300,9.899296142578125,0.002421048702672124,0.00827859342098236,0.0013707096222788095
1761140451057355500,9.90935546875,-0.0018550395034253597,0.008483711630105972,0.0026631662622094154
1761140451067414300,9.919414306640626,-0.0015530369710177183,0.010260039940476418,0.0027028473559767008
1761140451077474300,9.929474365234375,-0.0003974385908804834,0.014673428609967232,0.000610425544437021
1761140451087533300,9.939533203125,-0.0017961307894438505,0.004915607161819935,-0.0014729653485119343
1761140451097592300,9.94959228515625,0.0028868464287370443,0.004049174953252077,0.0008955291705206037
1761140451107652400,9.95965234375,0.0023179950658231974,0.0055554588325321674,0.001619376358576119
1761140451117711400,9.96971142578125,-0.0004720927099697292,0.00009704101830720901,-0.002372120739892125
1761140451127770400,9.979770263671876,0.0005231305258348584,-0.0018020591232925653,-0.0023758490569889545
1761140451137830100,9.989830078125,0.0005566023755818605,0.001376588363200426,0.0011132321087643504
1761140451147889400,9.999889404296875,-0.00006737624062225223,-0.0003667166456580162,-0.000006627058610320091
1761140451157949400,10.009949462890624,-0.0007296933908946812,0.0002907649613916874,0.0013501823414117098
1761140451168008400,10.020008544921875,0.006957520730793476,-0.022915754467248917,-0.005357521120458841
1761140451178067500,10.0300673828125,0.04318731278181076,-0.029865756630897522,-0.005488406866788864
1761140451188127200,10.040127197265624,0.08856570720672607,-0.016749422997236252,-0.004456964787095785
1761140451198186500,10.0501865234375,0.06992809474468231,0.016914643347263336,0.006813026964664459
1761140451208245200,10.060245361328125,0.0006526147481054068,0.028507649898529053,0.006827940698713064
1761140451218305300,10.07030517578125,-0.00036685419036075473,0.00816407985985279,0.0022803982719779015
1761140451228364300,10.0803642578125,0.0021972372196614742,0.001136263832449913,0.0011003515683114529
1761140451238424300,10.09042431640625,0.0003796500386670232,0.0001435922458767891,0.0006209578132256866
1761140451248483300,10.1004833984375,0.0010909803677350283,0.0005894051864743233,0.0028465616051107645
1761140451258542300,10.110542236328126,-0.0014453923795372248,-0.00035478826612234116,-0.0005222168401814997
1761140451268602400,10.120602294921875,-0.003754619276151061,0.001970417331904173,0.0020810230635106564
1761140451278661400,10.130661376953125,0.0016674487851560116,0.001386759802699089,-0.0005780463106930256
1761140451288720400,10.140720458984376,-0.0014351336285471916,-0.0017656241543591022,-0.002706977305933833
1761140451298780400,10.150780517578125,0.00020215584663674235,0.00033784471452236176,0.002233864739537239
1761140451308839400,10.16083935546875,-0.0027102769818156958,0.0017264168709516525,0.002271681558340788
1761140451318898400,10.1708984375,0.0012389353942126036,0.0016360832378268242,0.002451904583722353
1761140451328958200,10.180958251953125,0.0020440088119357824,0.0007010474801063538,-0.001915146829560399
1761140451339017500,10.191017578125,0.0007973723113536835,0.00004756031557917595,-0.0015105397906154394
1761140451349077200,10.2010771484375,-0.0006449956563301384,0.0016529136337339878,-0.001227712258696556
1761140451359136300,10.21113623046875,-0.0008718004100956023,-0.0009651840664446354,0.000981113757006824
1761140451369195300,10.2211953125,0.0012504726182669401,-0.0006008637137711048,0.0021076309494674206
1761140451379255300,10.23125537109375,0.00033073360100388527,0.0018744897097349167,-0.0018402637215331197
1761140451389314300,10.241314208984376,0.0001909176353365183,0.0013980502262711525,-0.00030788080766797066
1761140451399373300,10.251373291015625,0.0010294303065165877,0.0018106289207935333,0.001254886738024652
1761140451409433300,10.261433349609375,0.0009985376382246614,0.0014319270849227905,-0.0004961416707374156
1761140451419492400,10.271492431640626,-0.0017591128125786781,-0.0003225640393793583,-0.0017685762140899897
1761140451429552400,10.281552490234375,-0.0011260793544352055,0.0006377715617418289,0.0027662543579936028
1761140451439611400,10.291611328125,-0.00009279296500608325,-0.0021626984234899282,-0.0002446870203129947
1761140451449670400,10.30167041015625,-0.0031221387907862663,0.00269277673214674,-0.0005794463795609772
1761140451459730400,10.31173046875,-0.0014362738002091646,0.00073598837479949,0.0023097400553524494
1761140451469789200,10.3217890625,-0.0011734196450561285,-0.0003734845668077469,-0.0014668885851278901
1761140451479848400,10.331848388671874,0.0011165904579684138,-0.00005954829975962639,-0.0017170552164316177
1761140451489908500,10.341908447265626,0.001679582754150033,-0.00020362529903650284,-0.0020811092108488083
1761140451499967200,10.35196728515625,0.00018807390006259084,-0.00012064212933182716,-0.0014891857281327248
1761140451510026500,10.362026611328124,0.001779845217242837,0.0018871151842176914,-0.001835130387917161
1761140451520086300,10.372086181640626,-0.0016524477396160364,0.00262619461864233,0.00015565456124022603
1761140451530145300,10.382145263671875,-0.00040289253229275346,0.000034139957278966904,-0.002882213331758976
1761140451540205300,10.392205322265625,0.0014099322725087404,0.00016271835193037987,0.0018272486049681902
1761140451550264300,10.402264404296876,0.0012818342074751854,-0.00031105801463127136,-0.0016881239134818316
1761140451560323300,10.4123232421875,-0.00015844538575038314,-0.00220541562885046,0.0003653454186860472
1761140451570383400,10.42238330078125,-0.0015254460740834475,0.0007176697254180908,-0.0022123283706605434
1761140451580442400,10.4324423828125,-0.0008782449294812977,-0.0013137904461473227,-0.0003994920407421887
1761140451590501400,10.44250146484375,0.0020331228151917458,-0.0019441605545580387,-0.0016192197799682617
1761140451600561400,10.4525615234375,-0.0003507584915496409,-0.000357823446393013,0.001791949151083827
1761140451610620200,10.4626201171875,-0.00018031621584668756,-0.0016238903626799583,-0.0011859976220875978
1761140451620679400,10.472679443359375,0.0002833293401636183,0.00016074534505605698,0.0012029304634779692
1761140451630739500,10.482739501953125,-0.00005356053588911891,0.0002760603092610836,-0.0008703405037522316
1761140451640798200,10.492798095703124,0.0008537145331501961,0.0006367065943777561,-0.002176572335883975
1761140451650858500,10.5028583984375,-0.0005790661671198905,0.0008068825118243694,0.0012011146172881126
1761140451660917200,10.512917236328125,-0.000657788070384413,0.0008353814482688904,-0.0008173644309863448
1761140451670976500,10.5229765625,-0.0011110580526292324,-0.0007859510369598866,0.00009929563384503126
1761140451681036300,10.533036376953126,0.0012474374379962683,0.0007424373179674149,0.0019027882954105735
1761140451691095300,10.54309521484375,-0.0005573868402279913,0.0026420699432492256,-0.00016435736324638128
1761140451701154300,10.553154296875,0.0008052340708673,0.0005536680109798908,0.0006701530655846
1761140451711214300,10.56321435546875,-0.002084029372781515,0.002862362191081047,-0.000769551785197109
1761140451721273300,10.5732734375,0.001484894659370184,0.0009035025723278522,0.000044964137487113476
1761140451731333400,10.58333349609375,-0.0011303296778351068,-0.0005045109428465366,-0.0007273525698110461
1761140451741392400,10.593392333984376,0.00007050076965242624,-0.0007602260448038578,0.00010135123739019036
1761140451751451100,10.603451171875,0.0012470853980630636,0.0026680612936615944,-0.0016259748954325914
1761140451761511400,10.613511474609375,0.001141571206972003,0.0001825341023504734,-0.0008294462459161878
1761140451771570400,10.6235703125,-0.0003418095293454826,-0.001034530345350504,0.00026697712019085884
1761140451781629400,10.63362939453125,-0.0008058178354986012,0.0001478046178817749,0.0004120449011679739
1761140451791689500,10.643689453125,0.001923123374581337,-0.00048815831542015076,0.0010602583643049002
1761140451801748200,10.653748291015624,-0.0005321944481693208,0.000869999174028635,-0.000004498346243053675
1761140451811807500,10.663807373046875,-0.00036121957236900926,-0.001519122626632452,-0.0003411218640394509
1761140451821867300,10.6738671875,0.00009368115570396185,-0.0011339196935296059,0.0027505923062562943
1761140451831926800,10.6839267578125,-0.001601154450327158,0.0028190105222165585,0.001515418291091919
1761140451841986600,10.693986572265626,-0.0019228642340749502,0.0024288571439683437,-0.0010388195514678955
1761140451852045800,10.7040458984375,0.00012910121586173773,-0.00009715138003230095,0.0010237987153232098
1761140451862104600,10.7141044921875,-0.0012174788862466812,-0.0014376288745552301,-0.003920700401067734
1761140451872164600,10.72416455078125,-0.001129860756918788,0.002202113624662161,0.0006018796120770276
1761140451882223600,10.7342236328125,-0.001552940346300602,0.0017544915899634361,0.000423184857936576
1761140451892282600,10.74428271484375,0.001365884207189083,-0.000004526227712631226,-0.0004356846329756081
1761140451902343000,10.754343017578124,0.0015040384605526924,-0.001058818306773901,0.0012173883151262999
1761140451912401700,10.764401611328125,-0.0008470002212561667,0.0009603905491530895,-0.0026135689113289118
1761140451922460700,10.774460693359375,0.0008440322708338499,0.0018747597932815552,-0.0009274017647840083
1761140451932520700,10.784520751953124,-0.0007059274357743561,0.0015543815679848194,0.0011956702219322324
1761140451942579700,10.794579833984375,0.00004321971209719777,-0.0018528667278587818,-0.0019324787426739931
1761140451952639700,10.8046396484375,0.001394773949868977,-0.0014483325649052858,0.000039858336094766855
1761140451962698800,10.81469873046875,0.0000748365418985486,-0.002023202832788229,0.001409908290952444
1761140451972757800,10.8247578125,-0.0007371613173745573,0.001676193904131651,-0.0023824330419301987
1761140451982817500,10.834817626953125,-0.00039936654502525926,0.0008080010302364826,-0.0015594696160405874
1761140451992876800,10.844876708984375,0.0015221041394397616,0.0005067978054285049,0.0018845302984118462
1761140452002935600,10.854935546875,-0.00012718053767457604,-0.0000682314857840538,-0.0017044178675860167
1761140452012995800,10.864995849609375,-0.00022198917577043176,0.00004122452810406685,0.0006407618056982756
1761140452023054600,10.8750546875,-0.00010819727322086692,-0.001964773517102003,-0.00037349044578149915
1761140452033113600,10.885113525390626,-0.0008690624381415546,0.0006206231191754341,0.0011317282915115356
1761140452043174000,10.895173828125,-0.00048269081162288785,-0.000512284692376852,-0.001041700248606503
1761140452053232600,10.905232666015625,-0.0009388903272338212,0.000003569759428501129,0.0031754153314977884
1761140452063292700,10.915292724609374,-0.0014161176513880491,0.0005958038382232189,-0.0002023428096435964
1761140452073351700,10.9253515625,-0.0012249026913195848,0.0010008704848587513,-0.0009893069509416819
1761140452083410700,10.93541064453125,0.0004494794993661344,-0.0014689455274492502,0.0034488732926547527
1761140452093470700,10.945470703125,0.0007267145556397736,-0.0005240561440587044,-0.00038261665031313896
1761140452103529700,10.95552978515625,0.0018757409416139126,0.0001796577125787735,0.00048354093451052904
1761140452113588700,10.965588623046875,0.0002429567975923419,-0.00025177421048283577,0.00020683853654190898
1761140452123648800,10.975648681640624,0.0008909369353204966,0.000051934272050857544,0.0005682846531271935
1761140452133707800,10.985707763671876,0.00008746125968173146,-0.0010258471593260765,0.0012383359717205167
1761140452143766500,10.9957666015625,-0.0006737999501638114,0.0006144964136183262,0.00035277698771096766
1761140452153826800,11.005826904296875,-0.0012698154896497726,0.0001889234408736229,-0.0027170488610863686
1761140452163885800,11.0158857421875,-0.0011278139427304268,-0.00010535260662436485,-0.001116844592615962
1761140452173945600,11.025945556640625,0.00020669592777267098,0.0009607109241187572,0.0009548283414915204
1761140452184004900,11.0360048828125,-0.00258306204341352,0.0005867485888302326,0.0021023789886385202
1761140452194063600,11.046063720703126,-0.0002639813465066254,0.0005425401031970978,-0.00013654056238010526
1761140452204123600,11.05612353515625,-0.0007283618324436247,-0.0003374745137989521,-0.0011467974400147796
1761140452214182700,11.0661826171875,-0.00039679830661043525,0.0013405834324657917,-0.001174760633148253
1761140452224241700,11.07624169921875,0.002308984287083149,-0.0010943976230919361,0.0027445429004728794
1761140452234301700,11.0863017578125,-0.0022785768378525972,0.00041827792301774025,0.0000214605825021863
1761140452244360700,11.096360595703125,-0.0008962686988525093,0.0008775661699473858,0.0005316244205459952
1761140452254420700,11.106420654296874,-0.002542368369176984,0.0014951531775295734,-0.002617030870169401
1761140452264479700,11.116479736328126,0.001343502663075924,-0.0012383158318698406,0.0008019573870114982
1761140452274538800,11.126538818359375,0.0011072802590206265,0.0012243092060089111,-0.0007445402443408966
1761140452284598800,11.136598876953125,-0.0013224072754383087,0.02897726744413376,0.012127774767577648
1761140452294657800,11.14665771484375,-0.0025322814472019672,-0.0031939835753291845,-0.0038485287223011255
1761140452304716800,11.156716796875,0.0024721722584217787,0.008982257917523384,0.0007650641491636634
1761140452314776600,11.166776611328125,-0.0018022013828158379,0.00037678563967347145,-0.0033817440271377563
1761140452324835800,11.1768359375,0.0016974168829619884,-0.00492402259260416,-0.0033016735687851906
1761140452334894600,11.18689453125,-0.0002325759851373732,-0.003687783144414425,-0.0013660879340022802
1761140452344954600,11.19695458984375,-0.0005744092050008476,0.0008374066092073917,-0.0001879340852610767
