time,seconds_elapsed,z,y,x
1761141506627076000,0.043076171875,0.19137538929283618,0.13148410743176936,0.4057223427198827
1761141506637136100,0.05313623046875,0.20194646766781807,0.14153729941248894,0.44929216598570343
1761141506647196400,0.063196533203125,0.22700901273190974,0.1492754924491048,0.5262269371062517
1761141506657256200,0.073256103515625,0.2879834136545658,0.13122194936424492,0.5546523096669465
1761141506667316200,0.083316162109375,0.36296529714167114,0.1525727804288268,0.5585185566410422
1761141506677375200,0.093375244140625,0.45824937942326066,0.20610008021593093,0.5852477197431027
1761141506687435300,0.103435302734375,0.4881798227846622,0.23417525109946727,0.5829624583501368
1761141506697495300,0.113495361328125,0.5209621484458447,0.23937311200350522,0.6109232821390033
1761141506707555300,0.123555419921875,0.49017947216928004,0.233041863155365,0.6772681240536272
1761141506717615000,0.133614990234375,0.4596756128340959,0.20160218427479265,0.7280616149626672
1761141506727675100,0.143675048828125,0.3559299916774034,0.20886253066658972,0.7199675211604685
1761141506737734400,0.153734375,0.28114567658901213,0.2959285274401307,0.7231157560583203
1761141506747794200,0.163794189453125,0.2647346400141716,0.2702592486545443,0.6668434684120118
1761141506757854200,0.173854248046875,0.22430852160155773,0.2098629398807883,0.6881291983511298
1761141506767914200,0.183914306640625,0.14335048631429673,0.22763912732899189,0.6317420521534979
1761141506777974000,0.19397412109375,0.1040764605462551,0.291556303705275,0.5674323693282902
1761141506788034300,0.204034423828125,0.0862479583889246,0.2589081258177757,0.5446623921807855
1761141506798093300,0.21409326171875,0.05016542213857174,0.26274083584845065,0.5180398312583565
1761141506808153000,0.224153076171875,-0.07406944481730461,0.2628057177782059,0.4770372281320393
1761141506818213000,0.234213134765625,-0.1844680941224098,0.2722188582897186,0.39358993331231173
1761141506828273400,0.2442734375,-0.2792944957643747,0.29721199137941,0.35546412773132324
1761141506838333200,0.254333251953125,-0.36601767044961453,0.2961896625943482,0.35780747598707674
1761141506848393200,0.264393310546875,-0.42462534224092957,0.2620521229319274,0.3164095168676227
1761141506858453200,0.274453369140625,-0.38382337625324725,0.28101459755524993,0.2764919324990362
1761141506868512300,0.28451220703125,-0.316318112257123,0.26696736750230193,0.3098527887005359
1761141506878572300,0.294572265625,-0.2641846049159765,0.21943667778149245,0.36016909055188295
1761141506888632300,0.30463232421875,-0.2711135273963213,0.2036521025419235,0.3384417543251067
1761141506898692000,0.314692138671875,-0.18094576521515846,0.18344854181632397,0.32021329306475815
1761141506908752100,0.324752197265625,-0.05358838232457638,0.20801351262181997,0.2773858125988394
1761141506918812200,0.334812255859375,0.03553717732727527,0.20226357079297302,0.21534349018372595
1761141506928871200,0.34487109375,0.06865735664069653,0.19380334709212182,0.19994484552182257
1761141506938931200,0.35493115234375,0.0957850175410509,0.1738968696169555,0.1950689831137657
1761141506948991200,0.3649912109375,0.15236030672192571,0.20207447796165942,0.21075177847929297
1761141506959051000,0.375051025390625,0.19212240826785562,0.20556568107828496,0.23085385159179567
1761141506969111300,0.385111328125,0.2422609423995018,0.20702523223683236,0.20768340388461945
1761141506979171300,0.39517138671875,0.28014848224520683,0.17263415620476005,0.199549562593922
1761141506989230000,0.40522998046875,0.3163151896476745,0.16542685517445205,0.1937970634818077
1761141506999290000,0.4152900390625,0.3925789296388626,0.17433774525225162,0.2249510572887957
1761141507009350400,0.425350341796875,0.4737888938605785,0.18068126906007528,0.23219788661189375
1761141507019410200,0.43541015625,0.49072775370180605,0.21658888713493943,0.218325063277781
1761141507029470200,0.44547021484375,0.3910013050585985,0.22042773464545606,0.26656083252802487
1761141507039530200,0.4555302734375,0.25403905847668645,0.19467793796956537,0.264563228970021
1761141507049589200,0.46558935546875,0.16014029307365416,0.19432547127008437,0.2060647166416049
1761141507059649300,0.475649169921875,0.1501484758913517,0.2130310485228896,0.09125460756979882
1761141507069709300,0.485709228515625,0.2530044547319412,0.20685002180039883,-0.03313508462160825
1761141507079769000,0.49576904296875,0.3817874865114689,0.20073548444285988,-0.05203267731517553
1761141507089829000,0.5058291015625,0.5304068531394005,0.1614103130094707,-0.04269289430081844
1761141507099889200,0.51588916015625,0.6642156041264533,0.1408560391500592,-0.03153232560008764
1761141507109949200,0.52594921875,0.7050795294344425,0.11319310232922435,-0.06437208053693175
1761141507120008200,0.53600830078125,0.7017571070134639,0.10579977720752358,-0.011425649377703666
1761141507130068200,0.546068115234375,0.6623071401566266,0.1370356040790677,0.056875148910284036
1761141507140128300,0.556128173828125,0.6044044017642736,0.1532999256595969,0.1129214457809925
1761141507150188300,0.566188232421875,0.5037777894109488,0.1982689481988549,0.0904153072014451
1761141507160248300,0.576248291015625,0.38551498260200023,0.23439313163384795,0.11004070271290838
1761141507170308000,0.58630810546875,0.2606517546147108,0.25121421031430363,0.18620193217769265
1761141507180367000,0.5963671875,0.15872107392549514,0.22131781535297632,0.24374723543450236
1761141507190427400,0.606427490234375,0.11564005708992481,0.2312503035634756,0.2654348972380161
1761141507200487200,0.616487060546875,0.08224106083512306,0.2034846370205283,0.2519647364206612
1761141507210547200,0.626547119140625,0.06632160716950893,0.12706862907707692,0.2975567131638527
1761141507220607200,0.636607177734375,0.05862286936044692,0.12193097392767667,0.36242841378599405
1761141507230667000,0.6466669921875,0.013557985231280326,0.1250473523825407,0.421023226095736
1761141507240726300,0.656726318359375,-0.009928688818216323,0.12031813190355896,0.5093080971397459
1761141507250786300,0.666786376953125,-0.0590729512155056,0.12415230323895811,0.586145106974244
1761141507260846000,0.67684619140625,-0.1808300298810005,0.13518413099348545,0.6809234316907823
1761141507270906000,0.686906005859375,-0.3386597079247236,0.15951003234609962,0.7371665663078427
1761141507280966400,0.69696630859375,-0.5241828640580177,0.143772364988178,0.7170207271188497
1761141507291026200,0.707026123046875,-0.6147217976391315,0.16006737396791576,0.7041613916762173
1761141507301086200,0.717086181640625,-0.6552057837188243,0.1252905134886503,0.7421133750602602
1761141507311145200,0.727145263671875,-0.6187076524049043,0.0867806039609015,0.8280586972407996
1761141507321205200,0.737205322265625,-0.5370213028430938,0.050884384062886236,0.8494282330058515
1761141507331265300,0.747265380859375,-0.3394540731728077,0.015188947433978318,0.8135555401138961
1761141507341325300,0.7573251953125,-0.1504740545839071,-0.030526801819354295,0.7768973959326744
1761141507351385000,0.767385009765625,0.0026437925070524216,-0.08787059115469455,0.8347573180966079
1761141507361445000,0.777445068359375,0.12224924609661102,-0.10884630529657005,0.8335174010381102
1761141507371504400,0.78750439453125,0.09015782530903815,-0.15498042609244583,0.8568209736056626
1761141507381564200,0.797564208984375,0.062248074120283124,-0.1773432106785476,0.8299725680381059
1761141507391624200,0.807624267578125,0.07404606394171714,-0.07216463410928844,0.7150932661876082
1761141507401684200,0.817684326171875,0.0842874719709158,-0.044402913089096545,0.6983947909735143
1761141507411744000,0.827743896484375,0.07598492304980754,-0.06882233794406056,0.6746851218231021
1761141507421804300,0.83780419921875,0.021230419555306433,-0.07985664991661906,0.637814357804507
1761141507431863300,0.84786328125,-0.013269231417775154,-0.0644075902417302,0.5054181039638816
1761141507441923000,0.857923095703125,-0.012362053444981574,-0.04303235538825392,0.3592451075747609
1761141507451983000,0.867983154296875,0.044459903973340986,-0.061719812462478874,0.2570071145020425
1761141507462043100,0.878043212890625,0.1342149937003851,-0.08692161986678838,0.14721344535276293
1761141507472103000,0.88810302734375,0.25370880360901354,-0.11929814120605588,0.04603066042140126
1761141507482163000,0.898162841796875,0.3791489547014236,-0.14618074130415915,-0.03154313925504684
1761141507492222000,0.908221923828125,0.44879999855458735,-0.14476312959119678,-0.08489303664863108
1761141507502282000,0.918281982421875,0.47088615815639495,-0.20935352905392646,-0.16143661649450658
1761141507512342000,0.928342041015625,0.5345569585561752,-0.21851693258807062,-0.19048267823681234
1761141507522402000,0.938402099609375,0.497712205761671,-0.22561638932973146,-0.24206761178448793
1761141507532461800,0.9484619140625,0.42480479046106334,-0.2504423491589725,-0.20201310316324234
1761141507542521900,0.95852197265625,0.2917424739271402,-0.2719622531801462,-0.10060177017301321
1761141507552581000,0.9685810546875,0.18726210875511168,-0.2861168891303241,-0.05661386762559414
1761141507562641000,0.978640869140625,0.039111528682708736,-0.2969428921144455,-0.05585793469175696
1761141507572701000,0.988700927734375,-0.15159809017777442,-0.2831795935694128,-0.03016337533444166
1761141507582761000,0.998760986328125,-0.31144203065335746,-0.27434140340164304,0.08587152629196643
1761141507592821000,1.008821044921875,-0.43119478375911713,-0.2527270260300487,0.1936748984068632
1761141507602881000,1.018881103515625,-0.518637504890561,-0.23439247404672203,0.19932021081745624
1761141507612940000,1.02893994140625,-0.7587041521161795,-0.2050237562213093,0.3609184476144612
1761141507622999800,1.038999755859375,-0.8636240777492523,-0.15679894675649703,0.5670503842733801
1761141507633060000,1.04906005859375,-0.913905235221982,-0.1516513547349721,0.6520962733961642
1761141507643120000,1.0591201171875,-0.985101754951477,-0.20971381373368203,0.6457292225822806
1761141507653180000,1.069179931640625,-1.0104571454823017,-0.20401224109120666,0.6375812797009944
1761141507663240000,1.079239990234375,-0.8924117808163166,-0.16098733835704623,0.6656935677245259
1761141507673299200,1.08929931640625,-0.7225526422828435,-0.13755648614801466,0.7760426787994802
1761141507683359000,1.09935888671875,-0.5827887822836637,-0.1732110062446445,0.794279907888174
1761141507693419000,1.1094189453125,-0.48914194581508635,-0.2788975323360413,0.6834153946369886
1761141507703479000,1.11947900390625,-0.35348493661284447,-0.1906011900499463,0.6313210502624511
1761141507713538800,1.129538818359375,-0.18405191453695297,-0.05918642152734101,0.5832715973645448
1761141507723598800,1.139598876953125,-0.09055588471591472,-0.05692987477220594,0.49451969333067536
1761141507733658000,1.149658203125,-0.04236322395503521,-0.05962751635834574,0.45880423682704563
1761141507743718000,1.1597177734375,0.04313946902453899,-0.0456130195312202,0.3584939969465136
1761141507753778000,1.16977783203125,-0.014502572605013846,0.003168035576865077,0.2456910629786551
1761141507763838000,1.179837890625,-0.0013128361642360687,0.057627647778019306,0.1690774866364896
1761141507773898000,1.18989794921875,0.040158991909027095,0.08422507425919175,0.10626184176132082
1761141507783958000,1.1999580078125,0.1015191772788763,0.09358144308216869,0.06629588820636272
1761141507794017000,1.21001708984375,0.21359365084171295,0.10988061678037046,0.022275471628829837
1761141507804076800,1.220076904296875,0.3337064694315195,0.07997603851258754,-0.03486446569748223
1761141507814137000,1.23013720703125,0.4418658153772354,0.10128317656591534,-0.08889153170026838
1761141507824197000,1.240197021484375,0.46617082007229327,0.129634680172801,-0.09795980429686606
1761141507834257000,1.2502568359375,0.42249125282168387,0.08574147017151117,-0.16400851280912757
1761141507844317000,1.26031689453125,0.34630759232938285,0.13166560147851705,-0.27326610232032833
1761141507854376200,1.270376220703125,0.25544424909949304,0.20825126690044998,-0.22121274754330514
1761141507864436000,1.28043603515625,0.1413601892799139,0.2260527349203825,-0.1492216433700174
1761141507874496000,1.29049609375,0.04127601324021816,0.24029826402440665,-0.1303689857967198
1761141507884556000,1.30055615234375,0.012516367223858833,0.25352467921376226,-0.0888288417275995
1761141507894615800,1.31061572265625,0.08709551512897014,0.2850704488173127,-0.002450681087747216
1761141507904675800,1.32067578125,0.14300854100883006,0.29317542933970686,0.05242532989457249
1761141507914734800,1.33073486328125,0.24087679456472397,0.26928777327388526,0.0862689281117171
1761141507924795000,1.340794921875,0.3155371910125017,0.2814507970154285,0.15197773714512586
1761141507934855000,1.35085498046875,0.33177871623933314,0.30243615576848387,0.16140424859486519
1761141507944915000,1.3609150390625,0.34219957248866556,0.29424481213688847,0.1752814558431506
1761141507954975000,1.37097509765625,0.33183483034074307,0.27750322843343017,0.23984584408178924
1761141507965034000,1.381033935546875,0.3612818740993738,0.2815653633058071,0.31142361821383235
1761141507975093800,1.39109375,0.40000469572544095,0.3420097490049898,0.28903949857875705
1761141507985153800,1.40115380859375,0.45271278808414933,0.33500162380859255,0.25944150204211475
1761141507995214000,1.411214111328125,0.5436719929039477,0.30837752851620315,0.28384222219660876
1761141508005274000,1.421274169921875,0.5930600009292364,0.29397461689338084,0.2853779073312878
1761141508015334000,1.431333984375,0.6335504167497158,0.2571365861006081,0.3095864659145474
1761141508025393000,1.441392822265625,0.6465297253102064,0.22218656101152298,0.2917570869743824
1761141508035453000,1.451452880859375,0.5886866081506014,0.22204729867130515,0.23977584758549927
1761141508045513000,1.461512939453125,0.41795945461094375,0.18623115827217698,0.17540712804943323
1761141508055573000,1.471572998046875,0.23973171618282793,0.2646031225889921,0.26896511719077826
1761141508065633000,1.481633056640625,0.09578735562860966,0.2332080135025084,0.327416721637547
1761141508075692800,1.49169287109375,-0.022252163818478582,0.22170418432205913,0.3190114429943263
1761141508085752000,1.501751953125,-0.11724690776467322,0.4355138160020113,0.06920651495605706
1761141508095811800,1.511811767578125,-0.2593617148041725,0.20027561184614895,0.4505963804520666
1761141508105872000,1.521871826171875,-0.2093511909663677,0.011586977419257164,0.5549991503432393
1761141508115932000,1.531931884765625,-0.1693751544088125,0.1447302502349019,0.5004997906535864
1761141508125992000,1.541991943359375,-0.1639689114511013,0.16307766169980167,0.37032238190621136
1761141508136052000,1.552052001953125,-0.16234920129477975,0.20789850794002412,0.21567761750891803
1761141508146111000,1.562111083984375,-0.12579787848889826,0.22626593927964567,0.20520371589809655
1761141508156170800,1.572170654296875,-0.14524550628066063,0.22388357418775556,0.20354630407989024
1761141508166231000,1.58223095703125,-0.1437730956405401,0.2269425964321941,0.16613237309530376
1761141508176291000,1.592291015625,-0.10899871937930583,0.25296236915588377,0.1519198694780469
1761141508186351000,1.60235107421875,-0.0622404753357172,0.23507417270056902,0.12462269722968339
1761141508196409900,1.612409912109375,-0.0028717560440301893,0.21694771050997078,0.10073051111921667
1761141508206470000,1.622469970703125,0.09688158060610294,0.19562354825660586,0.08091331936269998
1761141508216530000,1.632530029296875,0.24248364523947238,0.1811446487881243,0.030091917533427475
1761141508226590000,1.64258984375,0.3614163141340017,0.17275895162820815,-0.04823898412063717
1761141508236650000,1.65264990234375,0.47891924248635764,0.15847637844942508,-0.08427768122926355
1761141508246710000,1.6627099609375,0.5855564934313296,0.11839615086503326,-0.0854804811477661
1761141508256769000,1.67276904296875,0.638165801590681,0.09782456054463982,-0.08767010014653205
1761141508266829000,1.6828291015625,0.6548772824168205,0.08967369505390524,-0.13789119799509644
1761141508276888800,1.692888916015625,0.6067407357573509,0.10305172060839832,-0.17539032304510474
1761141508286948900,1.702948974609375,0.47559506649971006,0.11551285051368176,-0.15097849697470664
1761141508297009000,1.7130087890625,0.2529313894957304,0.13439794905185698,-0.1309355336382985
1761141508307069200,1.723069091796875,0.018014964640140532,0.1676778489716351,-0.14768807712718843
1761141508317128000,1.7331279296875,-0.119226098883152,0.20945552812367677,-0.15752207339927554
1761141508327188000,1.74318798828125,-0.21752748315930365,0.20350129589438437,-0.24231778715327382
1761141508337247700,1.753247802734375,-0.22135200988352297,0.19514760130792855,-0.2975111204564571
1761141508347308000,1.76330810546875,-0.16151859568953514,0.1979083712581545,-0.3595231938637793
1761141508357368000,1.7733681640625,-0.062170917230844495,0.16570552598536015,-0.39585079091638325
1761141508367426800,1.7834267578125,0.06758592801690101,0.11992467560656368,-0.44870428309515115
1761141508377486800,1.79348681640625,0.12956278398036955,0.07159034135267138,-0.48242169764935966
1761141508387547100,1.803547119140625,0.15556991641819476,0.042937443646416065,-0.4770981645390391
1761141508397607000,1.81360693359375,0.14809095883965492,0.05168167192041874,-0.5029689572460949
1761141508407667000,1.8236669921875,0.11013502993285655,0.05424238925389945,-0.5226037781730294
1761141508417727000,1.83372705078125,0.12337035908102989,0.044290319560095666,-0.5210165089815855
1761141508427786000,1.843785888671875,0.161720255741477,0.0515302076857537,-0.5760686802484095
1761141508437846000,1.853845947265625,0.21021686788499355,0.026042788273096085,-0.6047575991161167
1761141508447906000,1.863906005859375,0.22400807735025882,-0.03023687896206975,-0.5935160741336644
1761141508457965800,1.8739658203125,0.2298001047551632,-0.07838708882071077,-0.5977028582990169
1761141508468026600,1.884026611328125,0.22650281677544115,-0.09450929851680993,-0.6217470201008022
1761141508478085600,1.894085693359375,0.18736440008580685,-0.11034523861743509,-0.6265354234211147
1761141508488145700,1.904145751953125,0.1538771410256624,-0.1115658664535731,-0.6532298074707389
1761141508498205700,1.914205810546875,0.11333236466944217,-0.12097096978910267,-0.638474940605089
1761141508508265700,1.924265625,0.10006956299245356,-0.11596253050994128,-0.6402423886690288
1761141508518325500,1.934325439453125,0.061195934718847274,-0.11792612220048904,-0.6372236253697425
1761141508528385500,1.944385498046875,0.025727730974555014,-0.14382478929515927,-0.591361307252571
1761141508538444500,1.954444580078125,0.002326397120952606,-0.15787950853481889,-0.5476286946404725
1761141508548504600,1.964504638671875,0.06948971581161022,-0.17821316191349176,-0.5222004580691456
1761141508558564600,1.974564697265625,0.16527707144021986,-0.1562216948578134,-0.5198450540494174
1761141508568624600,1.984624755859375,0.23756255545020102,-0.11255115116387605,-0.5050939135108142
1761141508578684700,1.9946845703125,0.2975438536822796,-0.0656010743426159,-0.45882053037472065
1761141508588744700,2.00474462890625,0.23279402587413786,0.000786620333045721,-0.4566416519656777
1761141508598803500,2.014803466796875,0.009185761496424675,0.05125767435468733,-0.3730681004177779
1761141508608863500,2.024863525390625,-0.30357904219329357,0.09216226046662777,-0.3748881554517895
1761141508618923800,2.034923828125,-0.5211000956118107,0.16369312671702355,-0.42126733704991637
1761141508628983800,2.04498388671875,-0.5996762041985988,0.19723087385538965,-0.42875455100014803
1761141508639043600,2.055043701171875,-0.5239794504404067,0.21338713195156306,-0.44700551635324953
1761141508649102600,2.0651025390625,-0.39451018996238707,0.24626648824643343,-0.6062671268962323
1761141508659162600,2.07516259765625,-0.12872925576567648,0.09558224324425682,-0.5164790116824209
1761141508669222700,2.08522265625,0.12927227660119534,0.02112009104862809,-0.4432603384755552
1761141508679282700,2.09528271484375,0.3021995705336332,0.024560084567824377,-0.460659217043966
1761141508689342700,2.1053427734375,0.3459767529398203,0.08427537054116838,-0.41548721927851434
1761141508699401700,2.115401611328125,0.3386988708913326,0.10211921639810316,-0.4009583431884646
1761141508709461800,2.125461669921875,0.35359482672810555,0.027513267251034267,-0.3491976146824658
1761141508719521500,2.135521484375,0.44317865154147146,0.027926620125165207,-0.32560031986534593
1761141508729581600,2.14558154296875,0.5199532636642455,-0.0013078448952874167,-0.3469039507873356
1761141508739641600,2.1556416015625,0.544725301349163,-0.09810092980060726,-0.3735691087424755
1761141508749701600,2.16570166015625,0.6872153714418411,-0.19721326513346282,-0.43631344194710253
1761141508759760600,2.1757607421875,0.9653747256964444,-0.31672983486317097,-0.5199678767114877
1761141508769820700,2.185820556640625,1.2370961558580398,-0.48284774104170497,-0.48833179847598074
1761141508779880400,2.19588037109375,1.5109212803006171,-0.6210840261474251,-0.4159647736623883
1761141508789940500,2.2059404296875,1.794409720623493,-0.7323473294578492,-0.3884738324075937
1761141508800000800,2.216000732421875,2.059838772642612,-0.8405050679683684,-0.38753479799181223
1761141508810059500,2.2260595703125,2.313379818469286,-0.9290842457838356,-0.4116808127328753
1761141508820119600,2.23611962890625,2.61067291226089,-1.0351515878863633,-0.4196943155795336
1761141508830179600,2.2461796875,2.915627918982506,-1.1271541642792522,-0.5148461497835815
1761141508840239600,2.256239501953125,3.2105601288616654,-1.1559467627171427,-0.551554124455899
1761141508850299600,2.266299560546875,3.514195285156369,-1.2563394932493566,-0.6501172284081578
1761141508860359700,2.276359619140625,3.5706256129086014,-1.2494222612068056,-0.6092088794365524
1761141508870418400,2.28641845703125,3.6696412829339504,-1.3130495147258043,-0.6577721270754933
1761141508880478700,2.296478759765625,3.638343642872572,-1.097475065330416,-0.5894713287875056
1761141508890538800,2.306538818359375,3.585731412103772,-1.02179708933793,-0.7720350505933166
1761141508900598500,2.3165986328125,3.576324701333046,-1.2324696651011704,-0.9131450645044445
1761141508910658600,2.326658447265625,3.6244063029348847,-1.305080435542762,-0.8827851436845958
1761141508920717800,2.3367177734375,3.7312434603661297,-1.4891016626805067,-0.8217889693215489
1761141508930777600,2.346777587890625,3.762850897029042,-1.6766747370809316,-0.805572578535974
1761141508940837600,2.356837646484375,3.7055905481934546,-1.6978287303991615,-0.685351477266103
1761141508950897700,2.366897705078125,3.511439264446497,-1.7699129927486181,-0.4465643484570086
1761141508960957400,2.37695751953125,2.98846694522202,-1.8538921294227242,-0.12102364982441068
1761141508971016700,2.3870166015625,2.2711107025384902,-1.8958973337203262,-0.3016081805117428
1761141508981076700,2.39707666015625,1.525035730370879,-1.9138560381285845,-0.43557022236436604
1761141508991136500,2.407136474609375,0.7585165205895901,-1.9131248012445865,-0.48022068047374483
1761141509001196500,2.417196533203125,0.06454173801541328,-1.9698348227210343,-0.5385375526249409
1761141509011256600,2.427256591796875,-0.43263796830475326,-1.7600608762979506,-0.42801527694016694
1761141509021316600,2.437316650390625,-1.2155372350007294,-1.43187696968019,-0.3967690748050809
1761141509031375600,2.447375732421875,-2.265355500012636,-1.034763319221139,-0.2621108673818409
1761141509041435600,2.457435546875,-3.7598628211289644,-0.7730962500840425,0.25915274822860956
1761141509051495700,2.46749560546875,-5.50174915831089,-0.4984993375513702,0.8250099771946668
1761141509061555700,2.4775556640625,-6.994447968700528,-0.04246166109452024,1.136029106260836
1761141509071615700,2.48761572265625,-8.555297939774393,0.5133910556044429,1.3876529202893375
1761141509081674500,2.497674560546875,-10.6593668992877,1.139769607963413,1.3218417468599974
1761141509091734500,2.507734619140625,-13.167729191631079,1.7457710696607827,1.2247484231993555
1761141509101794800,2.517794921875,-16.00081794361472,2.4788608880490064,1.5427952589452265
1761141509111854600,2.5278544921875,-18.780823924708365,3.1137495676651596,1.4015841227471828
1761141509121914600,2.53791455078125,-20.81217777662277,3.123058955541253,1.4565727272585034
1761141509131973600,2.5479736328125,-21.443089661562443,2.445418052652478,2.2753712825924155
1761141509142033700,2.55803369140625,-21.421724217450617,1.863736793219298,2.9434616823256015
1761141509152093700,2.56809375,-21.2247029312253,1.465582109274715,3.3235157691732047
1761141509162153700,2.57815380859375,-21.367344977009296,1.7731686335436998,3.515777001389861
1761141509172213500,2.588213623046875,-20.81605900197029,1.4264305408425628,2.5486738444656134
1761141509182273500,2.5982734375,-19.359741418516634,1.09963290095143,1.4932310175701975
1761141509192332800,2.608332763671875,-17.297711857831477,1.1516015000544488,0.8552781280778348
1761141509202392600,2.618392578125,-14.790946479290723,1.0470629749543965,0.009149922998063265
1761141509212452600,2.62845263671875,-11.929525951313972,0.47388829911444336,-0.7253457070674747
1761141509222512600,2.6385126953125,-6.748229813107848,-0.7948333039872347,-0.22744957783995196
1761141509232572700,2.64857275390625,-1.6933523156374692,-0.8901939586363732,-1.898032446052879
1761141509242631700,2.658631591796875,0.18643617932498455,-1.1103206645086408,-2.7842197993963955
1761141509252691500,2.66869140625,0.8249298976957797,-1.568095412157476,-0.9830298440482467
1761141509262751500,2.67875146484375,-0.9567389992982148,-1.2448153519332408,2.3238880607411265
1761141509272811800,2.688811767578125,-4.295401776459813,-0.13077110032420605,4.049094773539901
1761141509282871800,2.698871826171875,-7.091594922244548,0.6620008506864309,3.137314275386929
1761141509292930600,2.7089306640625,-8.086325506284833,1.2045096450299024,3.2685259956181048
1761141509302990600,2.718990478515625,-5.92808890325427,1.0604750489089638,4.157925442875921
1761141509313050600,2.729050537109375,-0.8758505221158266,0.6665928546518087,4.437378928594291
1761141509323110700,2.739110595703125,5.380284340590238,0.7540177478656173,3.9323827033042904
1761141509333170700,2.749170654296875,10.57948730688691,0.8900222553312778,3.117690998767316
1761141509343229400,2.7592294921875,15.068340694391727,0.631052389388904,2.67199335014224
1761141509353289700,2.769289794921875,18.56110448446274,0.29962175593487916,2.6190233919769526
1761141509363349800,2.779349853515625,20.438149233675002,-0.09903656668290495,2.447642304573208
1761141509373409500,2.789409423828125,21.002586951231955,0.1445635153658688,2.3590647341929376
1761141509383469600,2.799469482421875,19.58144355701208,1.7563557381696997,3.362807622858882
1761141509393529600,2.809529541015625,18.088558284139634,2.2745994214370846,3.440503733740747
1761141509403588600,2.819588623046875,15.945176135891675,2.199342228139937,2.496741412654519
1761141509413648600,2.829648681640625,13.74227679979205,2.3214529425486923,1.665314261893928
1761141509423708700,2.839708740234375,11.732184347093105,2.6426357382327317,1.2041918112523853
1761141509433768400,2.8497685546875,10.141930586880445,2.7447350534871218,0.22648593870587647
1761141509443828500,2.859828369140625,9.065913466250896,2.947688944631815,-0.5534642689261585
1761141509453887700,2.8698876953125,8.624659645292162,3.0742338420957327,-0.7837308221492916
1761141509463946800,2.87994677734375,8.579648537176848,2.9985122461572287,-0.9747709881383925
1761141509474006500,2.890006591796875,9.106892542371153,2.467313365857303,-1.185066474217549
1761141509484066800,2.90006689453125,9.810953250151872,2.1427456039100883,-0.828036996865645
1761141509494126800,2.910126953125,10.565684406983852,2.0501966456808147,-0.6429388612113892
1761141509504185600,2.920185546875,10.092874002766608,2.2217441756926477,-0.9790138133399188
1761141509514245600,2.93024560546875,9.43450595562458,2.3138930286884305,-1.218077421002835
1761141509524306000,2.940305908203125,9.028336892050504,2.344893293238431,-1.4174464393980801
1761141509534365700,2.95036572265625,8.819895801666378,2.2335748987399042,-1.6417656285241244
1761141509544425700,2.96042578125,8.065394946458936,1.9321184016585349,-2.159515390794724
1761141509554484500,2.970484375,7.978884537741542,2.237048566199839,-1.8976846555285154
1761141509564544800,2.980544677734375,8.685171104878187,1.9359446819484232,-2.0357548633523286
1761141509574604800,2.990604736328125,9.292725495105982,1.400381615089625,-2.5708371609568594
1761141509584664800,3.000664794921875,10.055779074603318,1.0251398969598113,-3.048988341680169
1761141509594724600,3.010724609375,10.871571726119518,0.8133698082834482,-3.651521688875556
1761141509604783900,3.020783935546875,11.642948897325992,0.7706802749834955,-3.992760307377577
1761141509614843600,3.03084375,12.059303839349745,0.9219922416962683,-3.868370542120933
1761141509624903700,3.040903564453125,12.325382879710197,1.200154810821265,-3.5968943188920615
1761141509634963700,3.050963623046875,12.216339152145386,1.3484173268355428,-3.6260569927513595
1761141509645023700,3.061023681640625,11.788340534079074,1.1109656844139097,-3.854991420587897
1761141509655082800,3.071082763671875,11.428548606276511,0.8251970241993665,-4.141715774092078
1761141509665142800,3.081142822265625,10.975422561216353,0.6382135131899267,-4.260572747401893
1761141509675202600,3.09120263671875,10.55198087580204,0.39487529694773255,-4.048523403392732
1761141509685262600,3.1012626953125,10.159515343409776,0.07193820494227111,-3.1868656572803853
1761141509695322600,3.111322509765625,8.930309648540616,-0.15436061369366944,-2.7414298744618892
1761141509705381600,3.121381591796875,7.772868044155835,-0.5683098097499459,-1.2773486712694166
1761141509715441700,3.131441650390625,6.860829187327623,-0.7837872285116464,1.5394954867474735
1761141509725501700,3.141501708984375,3.6046658296763896,-0.9393151324190199,3.5991321609467266
1761141509735561700,3.151561767578125,-2.0340730477452276,-2.2197674687921998,3.041683571624756
1761141509745621800,3.161621826171875,-7.184661912998557,-2.9648367710486054,2.577431152394414
1761141509755681800,3.171681884765625,-11.328974133324623,-1.9786887219145892,3.446581007827818
1761141509765740500,3.181740478515625,-14.997634588527678,-0.25034562905253843,4.677047516413032
1761141509775800800,3.19180078125,-18.531396743941308,0.6976364468868822,5.134371889945864
1761141509785860900,3.20186083984375,-20.626921746993062,1.6415291894197463,3.949358388024568
1761141509795920600,3.211920654296875,-23.63773788666725,3.7720354894816874,2.06005709156841
1761141509805980700,3.221980712890625,-27.44348976778984,6.7705129565864794,0.7753661677774042
1761141509816039700,3.232039794921875,-31.900038968539235,8.337987314236164,0.4070682043708861
1761141509826099700,3.242099609375,-35.16629585018158,9.052470631831884,0.030382118951925073
1761141509836159700,3.25215966796875,-35.735274133777615,8.721935193651914,-0.2737214083397761
1761141509846219800,3.2622197265625,-32.82688493387699,7.219137598574161,-0.696510730792582
1761141509856279600,3.272279541015625,-26.71738966215849,4.767093405780196,-0.46609596473779524
1761141509866338800,3.2823388671875,-19.107382275950908,1.4945524754323065,-1.0649014870490878
1761141509876398800,3.29239892578125,-12.431993827170134,-0.013018325396627187,-0.9968616047196089
1761141509886458600,3.302458740234375,-7.408501063522696,-1.1855764695663005,-0.7614721555247902
1761141509896518700,3.3125185546875,-4.4169022500157356,-1.467494811028242,-0.5132480669371784
1761141509906578700,3.32257861328125,-2.9801550439506768,-1.7892729422569273,-0.12730901370421052
1761141509916637700,3.3326376953125,-2.018673234039545,-1.630095356735587,0.034752785483933984
1761141509926697700,3.34269775390625,-1.6630734972298145,-1.4745122885748743,0.3779011465974152
1761141509936757800,3.3527578125,-1.2263894684046506,-1.3825672875881194,0.4928769676249474
1761141509946817500,3.362817626953125,-0.7910241209626198,-1.3492448637008667,0.2448460635218769
1761141509956877800,3.3728779296875,-0.5410147563934325,-1.390128662753105,-0.1440815770678222
1761141509966936800,3.382936767578125,-0.36798107947707176,-1.1325719515442847,-0.7078301433168351
1761141509976996600,3.39299658203125,-0.05179565368890762,-0.8667221898950636,-1.0055424854338169
1761141509987056600,3.403056640625,0.5848159041970968,-0.80350285958983,-1.1816308737456798
1761141509997117000,3.413116943359375,1.9561106871426104,-0.5367887361962348,-1.3662401299044489
1761141510007176700,3.4231767578125,3.667408993837237,-0.26249515399169177,-1.6517904711931943
1761141510017235700,3.433235595703125,5.3924453185051675,-0.056148880462348456,-2.1359683648601173
1761141510027295700,3.443295654296875,6.9901850505590435,-0.003836454624030739,-2.719732714177668
1761141510037355800,3.453355712890625,8.570759712800383,-0.15066707467166707,-3.436579546034336
1761141510047415800,3.463415771484375,9.741752288153767,-0.2108771766909398,-4.058531587187946
1761141510057475800,3.473475830078125,10.376163705646992,-0.1654497793923132,-4.4831700811713935
1761141510067534600,3.48353466796875,10.532925462198257,-0.19078131412351504,-4.416132726947963
1761141510077595000,3.493594970703125,10.409280377829074,-0.4175302694134414,-3.958622767715156
1761141510087654700,3.503654541015625,10.332331578183174,-0.69300345332399,-3.544470011910796
1761141510097714700,3.513714599609375,10.370540605068205,-0.7731041411295533,-3.212959006696939
1761141510107774700,3.523774658203125,10.427150381040573,-0.7247524173494428,-3.0139918471008538
1761141510117833700,3.533833740234375,10.525717138254642,-0.5749668199537321,-3.0124580616623162
1761141510127893800,3.543893798828125,10.583229416024684,-0.477817601387389,-3.095335666835308
1761141510137953800,3.553953857421875,10.610865610969066,-0.4701073923362419,-3.0760669027417897
1761141510148013600,3.564013671875,10.583834980702399,-0.3721863491471857,-2.936011366319656
1761141510158073600,3.574073486328125,10.493557912927866,-0.2059602333538234,-2.714351897922158
1761141510168132900,3.5841328125,10.24658455505371,0.028707842763885855,-2.50636264295876
1761141510178192600,3.594192626953125,9.870388604938983,0.1527510596051812,-2.4661218179851767
1761141510188252700,3.604252685546875,9.274331760281324,0.1303617523383349,-2.4222315305933355
1761141510198312700,3.614312744140625,8.194298389747738,0.15176906283050776,-1.4925179008647798
1761141510208372500,3.62437255859375,6.027459962588548,0.2555328041657805,-1.2137173260971903
1761141510218431700,3.634431640625,2.6972154696822166,0.3709423039028421,-1.1667153364256024
1761141510228491800,3.64449169921875,-0.5763853449821472,0.08199041054230183,-0.10564436745010315
1761141510238551600,3.654551513671875,-3.4894010356396437,-0.3442934394953772,1.1107993148710578
1761141510248611600,3.664611572265625,-5.564657742166519,-0.9538814179100096,2.060697435298562
1761141510258671900,3.674671875,-7.163979190453887,-1.7681651261679827,3.2346780865520235
1761141510268730600,3.684730712890625,-9.690289227420092,-1.3832741206832229,2.114711641819775
1761141510278790700,3.694790771484375,-13.199537703824042,-0.2397861132511869,0.4898702600896358
1761141510288850700,3.7048505859375,-17.351123130023478,1.7045083542935549,1.3996869108237324
1761141510298910700,3.71491064453125,-21.013685852873323,4.15727545453459,3.797333012345433
1761141510308970800,3.724970703125,-21.307583459007738,4.871308982536196,4.847455228739976
1761141510319029800,3.73502978515625,-18.43217181507945,4.138413517676294,4.433724205479026
1761141510329089500,3.745089599609375,-14.730978040540217,3.397852048233151,3.3537273675635455
1761141510339149800,3.75514990234375,-11.215877330976724,2.673103357210755,2.052742676901817
1761141510349209900,3.7652099609375,-7.766490325817466,1.8599213265843688,0.9275327054928988
1761141510359269600,3.77526953125,-4.693105794027447,0.9617551469597965,0.2931580398134887
1761141510369328600,3.78532861328125,-2.126097835969925,0.14200265190191566,-0.05906089545153081
1761141510379389000,3.795388916015625,0.040026889961957926,-0.4003909916292876,-0.33738618085756894
1761141510389448700,3.80544873046875,1.8620733900517223,-0.6171586693972348,-0.5310859214447439
1761141510399508700,3.8155087890625,3.347044236537814,-0.5732658612547442,-0.5849125695046037
1761141510409568800,3.82556884765625,4.5958682395905255,-0.38248405394088475,-0.6697286684595049
1761141510419628500,3.835628662109375,5.7004655580163,-0.19604414828885344,-0.8292911616452038
1761141510429687800,3.845687744140625,6.510471442824602,-0.04308239137532655,-0.9434031323850154
1761141510439747800,3.855747802734375,7.11926735754609,0.09730330401635728,-1.0287494657590985
1761141510449807600,3.8658076171875,7.542536024481057,0.2552140570728108,-1.07928145618774
1761141510459867600,3.87586767578125,7.543700392085313,0.464534231846407,-1.0307231039196252
1761141510469927700,3.885927734375,7.050445165732502,0.585704267871566,-1.0643944143097848
1761141510479987000,3.895987060546875,6.224001356342434,0.6317609029844403,-1.0522369435261933
1761141510490046700,3.906046630859375,5.201189171677828,0.7020730410948395,-1.1688177155323325
1761141510500106800,3.916106689453125,3.8774101731449364,0.6232128548696637,-1.317357002661377
1761141510510166800,3.926166748046875,2.97112242718935,0.14286452942825853,-1.1573150553956628
1761141510520225800,3.936225830078125,2.85011996628344,-0.9103074299257248,-0.3685100717872381
1761141510530285800,3.946285888671875,3.287451060840487,-2.3630711933553217,0.32757220446020363
1761141510540345900,3.956345947265625,4.356925043436885,-3.796124513338506,0.8508009826637803
1761141510550405600,3.966405517578125,5.350863015794753,-3.908243702825904,-0.25982173353135585
1761141510560466000,3.9764658203125,5.554496413636207,-2.461554363939166,-2.2382992969132958
1761141510570526000,3.98652587890625,4.142059472963214,-0.8182755543731153,-2.6340239772319793
1761141510580584700,3.996584716796875,0.7059767705351114,0.4744800909951329,-1.47867452282086
1761141510590644700,4.006644775390625,-3.7635967469602822,1.9476324893936514,-0.20898849513381718
1761141510600705000,4.016705078125,-8.908564265200495,3.4041271829798814,0.7024785531558096
1761141510610764800,4.026764892578125,-11.717491804873942,3.6154572728037833,1.5338180256329477
1761141510620823800,4.03682373046875,-11.054329509192705,3.0719340407207607,1.5624614979237317
1761141510630883800,4.0468837890625,-7.314322896656393,2.8600635604098437,2.191169150817394
1761141510640943900,4.05694384765625,-3.117552759340405,2.570387079101801,3.123169430178404
1761141510651004000,4.06700390625,-0.43099312370717524,1.062272819045931,2.4115458859279753
1761141510661064000,4.07706396484375,1.6257371615260838,-0.34822803899794813,-0.08923033520057796
1761141510671122700,4.087122802734375,3.857281577351689,-0.6035234907438978,-1.5440649866200982
1761141510681183000,4.097182861328125,5.690554404854774,-0.7169391132500023,-1.8151408123545347
1761141510691243000,4.107242919921875,6.7898723215729,-1.1457827307730912,-1.4752170758433638
1761141510701302800,4.117302734375,7.642967991045117,-1.314921592207998,-1.2040195234254
1761141510711362800,4.12736279296875,8.11447140431702,-1.204065554524213,-0.8889099101752043
1761141510721421800,4.137421875,8.10436502084434,-0.9560467792503535,-0.5642910025626421
1761141510731481900,4.14748193359375,7.569483068117499,-0.9240772312767803,-0.4042318119011819
1761141510741542000,4.1575419921875,6.409843661427497,-1.0950662506230175,-0.0948465676471591
1761141510751602000,4.167601806640625,5.121295550751686,-0.8939729657184332,0.33631343705952166
1761141510761661700,4.17766162109375,4.417608936980367,-0.4105719381755218,0.7425435831710696
1761141510771721000,4.187720947265625,4.0814223411709065,-0.10169774871617555,1.074193412333727
1761141510781780700,4.19778076171875,3.6737118933737274,-0.4388374439993873,0.9984323611676692
1761141510791840800,4.2078408203125,2.8886691849082706,-1.0652583376627416,0.25396599324047564
1761141510801900800,4.21790087890625,1.3384060743004083,-1.1412355888627468,-0.5737259165145456
1761141510811960800,4.2279609375,-0.3425169678747654,-1.0973486624717712,-1.4774221846722067
1761141510822019800,4.238019775390625,-1.6812521279990673,-1.0450780847474932,-1.8484926084667443
1761141510832080000,4.248079833984375,-1.8629969346374273,-0.7716652674328536,-1.1993769583165645
1761141510842139600,4.2581396484375,-1.1822171492010354,-0.6903256124168634,-0.4469538592312485
1761141510852199700,4.26819970703125,-0.3100216424614191,-0.8786472401622683,0.03569978401046246
1761141510862260000,4.278260009765625,0.8511521341890096,-0.7723851792052387,0.2880462497577071
1761141510872318700,4.288318603515625,1.720313387799263,-0.6870477597899735,0.6127491093266755
1761141510882378800,4.298378662109375,2.0778034684002398,-0.8716119346980005,0.9696290221400559
1761141510892438800,4.308438720703125,2.171086732253432,-1.072869543318823,1.1463023707330227
1761141510902498800,4.318498779296875,2.1729139476805925,-1.1943090804677456,0.7057349246032536
1761141510912558800,4.328558837890625,1.6402625304847955,-1.183991392331943,-0.023933614099398252
1761141510922617900,4.338617919921875,0.27382863157391546,-1.154250407128036,-0.3616547259997576
1761141510932677600,4.348677734375,-2.473366966807842,-0.8686801920950412,-0.4612928387723863
1761141510942738000,4.358738037109375,-6.068273034492135,-0.46745322456564753,-0.2885593869116157
1761141510952798000,4.3687978515625,-9.995894807004928,-0.20121044501084834,0.7698410476803779
1761141510962857700,4.378857666015625,-14.829979682040214,0.6976825510509311,2.10374937217012
1761141510972916700,4.388916748046875,-19.874649089229106,1.6761846154764293,2.4572490679606793
1761141510982977000,4.39897705078125,-25.021635546076297,1.9082240235909818,3.512328029979765
1761141510993036800,4.409036865234375,-28.126952508699894,1.2560653524830936,3.1144951253354547
1761141511003096800,4.419096923828125,-29.168219802987572,0.7446132290519774,0.9677512455694377
1761141511013156900,4.429156982421875,-29.301058247637748,1.8794088479951023,-2.309374528350681
1761141511023215900,4.4392158203125,-31.803008334851263,3.1083310497477648,-4.362185740444064
1761141511033276000,4.44927587890625,-34.63176227250099,3.8090374786645174,-2.4273649479590356
1761141511043336000,4.4593359375,-34.58914595056772,4.021246981671452,-0.8386613397978245
1761141511053395700,4.469395751953125,-30.849597018671034,3.3764898189917205,-0.17525345359137282
1761141511063455700,4.479455810546875,-22.885696699571607,3.276328486062586,-0.6416247829381376
1761141511073515000,4.489514892578125,-13.453846811413765,1.8007418462544678,-1.5381979942828417
1761141511083574800,4.49957470703125,-5.940680089280009,0.8749830185662955,-1.2576480916298924
1761141511093634800,4.509634765625,-1.017250458884239,-0.5148069868169725,-1.5385330714561045
1761141511103694800,4.51969482421875,3.6865725439906116,-1.5239555339187383,-1.3669623066991567
1761141511113754600,4.529754638671875,8.789246396380662,-1.7591579361088574,-2.2491825099773703
1761141511123814000,4.53981396484375,12.21062135902047,-1.8895470879107712,-3.353074164351821
1761141511133874000,4.5498740234375,13.715354890596865,-0.814858293275535,-3.4049957825079558
1761141511143933700,4.55993359375,13.961963506811857,0.27421879993528125,-1.1356691869072615
1761141511153993700,4.56999365234375,13.806159197115898,1.9397103180922566,1.526882235020399
1761141511164054000,4.580053955078125,12.233165199261903,3.085611268417537,5.427178778234124
1761141511174112800,4.59011279296875,10.296016402220726,3.1630683098465204,7.3779264770388595
1761141511184172800,4.6001728515625,9.84408044372797,2.6072236485898492,6.159186646604538
1761141511194232800,4.61023291015625,11.51447332406044,1.920638245614618,4.780806873834133
1761141511204292900,4.62029296875,13.79723939307928,1.3966373139947652,3.713920861904323
1761141511214352000,4.630351806640625,15.083409668707846,1.3713251780837774,1.279342183174193
1761141511224411600,4.64041162109375,15.454058506089448,2.071480402858555,-1.2524816487774253
1761141511234471700,4.6504716796875,14.721838456273078,3.2249636250063776,-2.7357611811757088
1761141511244532000,4.660531982421875,15.455885721516609,3.5949905310973524,-2.427649756249785
1761141511254592000,4.670592041015625,15.790959387648105,4.0366786518201225,-1.818195231489092
1761141511264650800,4.680650634765625,16.093816545307636,4.513725086171925,-0.9048267334923148
1761141511274710800,4.690710693359375,14.83869841054678,5.3708022264957425,-0.8003745715014636
1761141511284770800,4.700770751953125,11.442665978956223,6.276856748217344,-1.5200596955239771
1761141511294830800,4.710830810546875,7.886566319528222,6.496653345352411,-2.1091163060307503
1761141511304891000,4.720890869140625,4.787526537477969,6.208289992469549,-2.3362308249637485
1761141511314949600,4.73094970703125,2.3458967711925505,5.3251358693420885,-2.222261331434548
1761141511325010000,4.741010009765625,1.4246850123494863,4.3811286335840816,-2.672257261775434
1761141511335070000,4.751070068359375,2.3198013759493827,3.735631466192007,-2.419875322856009
1761141511345129700,4.761129638671875,4.090235762223601,3.387755017110705,-2.2715748129189013
1761141511355189800,4.771189697265625,5.694425108808279,3.239418266816437,-2.600215523393452
1761141511365249000,4.7812490234375,6.996071770510077,3.16069076706022,-2.7443311488613484
1761141511375308800,4.791308837890625,8.0657029894948,3.0305685956314203,-2.256389664877206
1761141511385368800,4.801368896484375,8.908334548097848,2.809786202329397,-1.438324976775795
1761141511395428900,4.811428955078125,9.258626241627335,2.2737790449649093,-0.6664256083261221
1761141511405488600,4.821488525390625,8.93468362584114,1.9230200261846184,-0.7207537031020969
1761141511415548000,4.8315478515625,8.523765906435251,1.868296210089326,-1.2061805008515716
1761141511425608000,4.84160791015625,8.264690607357025,1.9560116106823087,-0.9255310102816671
1761141511435667700,4.851667724609375,7.841723553717136,2.0727868092820048,-1.2312068055585026
1761141511445727700,4.861727783203125,7.537838806575536,1.9605926548622548,-1.635147671689093
1761141511455787800,4.871787841796875,7.173127542549372,1.6770934008844196,-1.4584405669569969
1761141511465847600,4.88184765625,6.948030500918627,1.309628015844524,-1.1270420091416686
1761141511475907600,4.891907470703125,7.129737898156047,1.0956279761590062,-1.0151911882668734
1761141511485967400,4.90196728515625,7.653357283112406,1.1610121563479303,-1.0351090639188885
1761141511496027400,4.91202734375,8.324480766931176,1.549142874406278,-1.0995669230431317
1761141511506086400,4.92208642578125,9.27212051397264,1.7987069794259964,-1.0777286007225513
1761141511516146400,4.932146484375,10.370108058869839,1.6444301715582608,-0.9446933183260261
1761141511526206500,4.94220654296875,11.110077699899673,1.2876666516661643,-0.9431367365337908
1761141511536266500,4.9522666015625,11.240033282589911,1.0310368460439145,-1.2210023685388267
1761141511546326300,4.962326171875,11.17687101623416,1.0172640490181744,-1.7668674875728785
1761141511556385500,4.972385498046875,10.48461589705944,1.049954604742676,-2.485023502331972
1761141511566445300,4.9824453125,9.299508871635794,0.7534650824189185,-2.8450416401058436
1761141511576505300,4.99250537109375,7.631419592070579,0.5634614198707044,-2.718986571985483
1761141511586565400,5.0025654296875,5.24126399243474,0.38735213490128517,-1.819810996122658
1761141511596625700,5.012625732421875,2.502608258861303,-0.060221828989684575,-0.22564736898988483
1761141511606684400,5.022684326171875,-1.2498387330532073,-1.0620040851071477,1.47685636748299
1761141511616744400,5.032744384765625,-5.837438325992227,-3.4748990475565193,3.435943586218357
1761141511626804200,5.04280419921875,-9.564420037260652,-7.287911275070905,4.380435682883858
1761141511636864500,5.052864501953125,-13.82780638077855,-9.720174078074097,2.5608736930862066
1761141511646924500,5.062924560546875,-18.18570582220554,-6.001326573422551,4.143327885463833
1761141511656983300,5.0729833984375,-23.773405417263508,-2.1526766308158636,6.223959270766377
1761141511667043300,5.083043212890625,-31.95611799863577,0.0775069449853152,6.473067302581668
1761141511677103600,5.093103515625,-38.868767389571666,3.6564269965738054,5.040584768223762
1761141511687163400,5.103163330078125,-41.61941751232147,5.837144896003603,2.521536538954079
1761141511697223400,5.113223388671875,-40.789256143713,6.034069151595235,2.2404776638656854
1761141511707282400,5.123282470703125,-36.26794425567388,2.9318612609028816,2.465312255167961
1761141511717342500,5.133342529296875,-29.326316607534885,0.4360161760335788,2.3846648932650685
1761141511727402500,5.143402587890625,-21.98123792260885,-0.6270636850789189,0.2990090308640152
1761141511737462500,5.153462646484375,-15.346577790057658,-1.3898679659903048,-1.445465350049734
1761141511747521300,5.163521240234375,-10.015375752544402,-3.183991855409741,-1.744432660663873
1761141511757581600,5.17358154296875,-6.16207301569581,-3.070338880483806,-0.7442487065885216
1761141511767641600,5.1836416015625,-2.901590625801682,-2.3727583285026252,-0.41909671501256524
1761141511777701400,5.193701416015625,0.3148047850847244,-1.1807254493385553,-0.6746493198573589
1761141511787761400,5.203761474609375,3.2651340150922534,-0.43897886176407336,-0.9171475781440734
1761141511797820700,5.213820556640625,5.617760971322656,-0.23405542411208152,-0.7563805314742028
1761141511807880400,5.22388037109375,7.1955527248471975,0.6075298403084278,-0.2127624607145786
1761141511817940500,5.2339404296875,8.811661641806364,1.0385589121118188,-0.260731541852653
1761141511828000500,5.24400048828125,11.12015368823409,1.0375184631481766,-0.7802809008911251
1761141511838060300,5.254060302734375,13.539395097100734,0.24623101507425307,-0.8754387264445423
1761141511848119600,5.26411962890625,15.001611675465107,0.924428528932482,-0.872515970865637
1761141511858179600,5.2741796875,14.899022238606214,1.331815882255137,-1.0446358939379452
1761141511868239400,5.2842392578125,14.455994393712281,1.0427994722910225,-1.8385681574322281
1761141511878299400,5.29429931640625,14.233941542083024,1.3215204059511423,-2.2682820549838243
1761141511888358400,5.3043583984375,14.074253668951988,1.8145010531462729,-2.3617805690228937
1761141511898418400,5.31441845703125,13.48507430884838,1.8470390486575663,-2.35645323652029
1761141511908478500,5.324478515625,12.549128506731986,1.563843746062368,-2.301324492885917
1761141511918538500,5.33453857421875,11.55190142970085,1.3688139259152114,-2.122004575306922
1761141511928598500,5.3445986328125,10.691401036930083,1.4061980462834238,-1.9123355505630373
1761141511938657500,5.354657470703125,9.806221545454859,1.462744986152649,-1.61521182198897
1761141511948717300,5.36471728515625,8.89145180235803,1.5004333501644431,-1.2950840883158146
1761141511958777300,5.37477734375,7.766932808887958,1.467888194260001,-0.9068117698296904
1761141511968837400,5.38483740234375,6.538458350902795,1.5768787303328513,-0.5157870838955044
1761141511978897700,5.394897705078125,4.854316931203007,1.579580098246038,-0.0026019991919398306
1761141511988956400,5.404956298828125,2.4129309105455876,1.5161860689610243,0.30424086710289117
1761141511999016400,5.415016357421875,-0.4884112934529781,2.354060496164858,0.47436318661719556
1761141512009076500,5.425076416015625,-2.8768454761236906,2.79723797866255,0.44970542296171184
1761141512019136500,5.435136474609375,-4.809603344729543,2.122009689873457,0.756194142056629
1761141512029196500,5.445196533203125,-5.180952439334988,0.0373081325225532,1.3639546493157744
1761141512039255300,5.45525537109375,-3.999610903924703,-3.536019578951597,2.21184135196805
1761141512049315300,5.4653154296875,-1.3871844259947537,-7.484350962015986,1.9958144826300441
1761141512059375600,5.475375732421875,1.6020242775052784,-8.729725701397657,-1.3035256073161958
1761141512069435400,5.485435302734375,1.5556547405183314,-6.001871932345629,-3.5272008972018956
1761141512079494400,5.495494384765625,-0.7882868049532175,-0.4142771128363907,-1.1593236187390983
1761141512089554400,5.505554443359375,-7.068855267170071,3.3975995347768064,1.5493012798383832
1761141512099614500,5.515614501953125,-15.444720184379815,5.6356350661873815,1.3547590970776975
1761141512109674500,5.525674560546875,-20.48074918899536,6.904932532948255,1.3967643013752995
1761141512119734500,5.535734619140625,-22.253388976359368,5.700065160521865,1.4484889356546102
1761141512129793300,5.545793212890625,-19.121597848308085,3.946145855718851,1.019046694651246
1761141512139853600,5.555853515625,-13.633053039485215,3.219645060332119,0.8287553012028336
1761141512149913600,5.56591357421875,-8.397975626730918,2.616070387390256,0.14797843837589025
1761141512159973400,5.575973388671875,-3.8744559995144603,1.7592980752319096,-0.7651425146006047
1761141512170033400,5.586033447265625,-0.03658522507548332,1.1414797728821635,-1.3968606013566254
1761141512180092700,5.5960927734375,2.7297359295368193,0.9350374550998211,-1.6404805571496486
1761141512190152400,5.60615234375,4.687396184208989,0.922376491773501,-1.4508445588700472
1761141512200212500,5.61621240234375,5.939311723536252,0.9237647312615066,-1.3626529190674423
1761141512210272500,5.6262724609375,6.746909378159046,0.8795933619059622,-1.1774864674173295
1761141512220331500,5.63633154296875,7.327226217371225,0.7127486027576029,-0.9606023967280983
1761141512230391600,5.6463916015625,7.61963095459938,0.5606199128344654,-0.8382238982286304
1761141512240451600,5.65645166015625,7.7850009650200604,0.5346295854009687,-0.7785350801371037
1761141512250511400,5.666511474609375,8.019276169362664,0.4963150523148477,-0.8583542475875466
1761141512260571400,5.6765712890625,7.9227435483247035,0.34915085293129083,-0.8731726081434636
1761141512270630400,5.68663037109375,7.651638204234838,0.26157442241758105,-0.48109746330827474
1761141512280690400,5.6966904296875,7.480992883759736,0.09800517780855297,-0.24099486798644065
1761141512290750500,5.70675048828125,6.941581470909714,-0.1889580990180373,-0.41036994933001697
1761141512300810500,5.716810546875,6.159982180896401,-0.6898844445206225,-0.31133338264711197
1761141512310870500,5.72687060546875,5.5712914810925716,-1.4021214444942771,0.03864511674735695
1761141512320929500,5.736929443359375,4.710621576973796,-1.7776697443552314,0.09680095311794429
1761141512330989300,5.7469892578125,3.5709365785539147,-1.4722102952428162,0.14454641810059546
1761141512341049300,5.75704931640625,2.423434768903255,-1.2608370969295501,0.06134966397583484
1761141512351109600,5.767109619140625,1.1718494844436644,-1.000614235251397,-0.2993588672149926
1761141512361168400,5.77716845703125,-0.27251287280023095,-0.3798614868849516,-0.522245977711305
1761141512371228400,5.787228515625,-3.2354654375374317,0.3061791416890919,-0.03251841402798891
1761141512381288400,5.797288330078125,-6.935950187024473,0.8491856564216316,1.339081781604886
1761141512391348500,5.807348388671875,-9.059260438102482,1.2775243200972675,2.350180001469701
1761141512401408500,5.817408447265625,-9.405214979210495,1.3688140720456838,2.6014471110150215
1761141512411467500,5.827467529296875,-8.872564146536588,1.466316122637689,2.4275334363937375
1761141512421527300,5.83752734375,-7.549444488695263,1.2112656951613723,1.792341389916837
1761141512431587600,5.847587646484375,-5.897773844489455,1.0297731097184122,0.7803628800861537
1761141512441647600,5.857647705078125,-4.227629970481992,1.2650440471000968,-0.07876695498377084
1761141512451707400,5.867707275390625,-2.5403905847668646,1.4009481629312037,-0.31255086867809295
1761141512461766400,5.877766357421875,-1.5043237817317245,1.2436173743203283,0.034653964751958845
1761141512471826400,5.887826416015625,0.4007739265322685,0.9049421765655279,0.6626029082328081
1761141512481886500,5.897886474609375,1.7645131795316933,0.67244201907143,0.8463616850420832
1761141512491946200,5.9079462890625,2.757220733311772,0.6318760537967085,0.8684192030712962
1761141512502005200,5.918005126953125,2.911076247027516,0.4232651598036289,0.7718529720246792
1761141512512065500,5.9280654296875,2.410244447940588,0.04774111760109663,0.54440469109267
1761141512522125300,5.938125244140625,2.322204929959774,-0.08499313602223992,0.11850070721805095
1761141512532185300,5.948185302734375,2.509561731261015,-0.002897036615759134,-0.08940919889882207
1761141512542245400,5.958245361328125,2.5858558663904665,-0.08203077908530831,-0.1646981025084853
1761141512552304400,5.968304443359375,2.574115159714222,-0.25224530692771074,-0.2118713570937514
1761141512562364400,5.978364501953125,2.4846044001370666,-0.3547423162627965,-0.25960458364933725
1761141512572424400,5.988424560546875,2.3084914619058368,-0.3635698389060795,-0.3568205107763409
1761141512582484200,5.998484130859375,1.997833275106549,-0.45829855232723055,-0.4604866369560361
1761141512592544300,6.008544189453125,1.468108559012413,-0.4615109385024756,-0.6436892411872744
1761141512602603500,6.018603515625,0.7109042900651693,-0.3842012696549296,-0.21500132568255065
1761141512612663300,6.028663330078125,0.10574585506319999,-0.4861643913090229,-0.301420402854681
1761141512622723300,6.038723388671875,-0.39710196002125736,-0.6792167739033699,-0.6526346180565655
1761141512632783400,6.048783447265625,-1.0347662418305874,-0.6624833735063672,-0.8760210563771427
1761141512642842400,6.05884228515625,-1.6758078911185263,-0.5062129806686192,-1.1783543362930415
1761141512652902400,6.06890234375,-2.206755427005887,-0.44431065124608576,-1.4795342083901166
1761141512662962400,6.07896240234375,-2.5760914282232523,-0.27993074784129857,-1.2657315909728406
1761141512673022200,6.089022216796875,-2.8488328490823505,-0.15276085034683345,-1.169599732755497
1761141512683082200,6.099082275390625,-3.180091925361752,-0.1992052061356604,-1.1765746132694184
1761141512693141200,6.109141357421875,-3.240292419302463,-0.4448004805896431,-1.0030424853116273
1761141512703201300,6.119201171875,-2.79157834546566,-0.4550638812549412,-0.8581634742558002
1761141512713261300,6.12926123046875,-1.9658663574814794,-0.6169223033580928,-0.9919001829199492
1761141512723321300,6.1393212890625,-0.9421931720733642,-0.4936741093520075,-1.095031763831526
1761141512733380400,6.14938037109375,0.216109433054924,-0.3316949834786355,-1.233629502660781
1761141512743440400,6.1594404296875,1.4298936869084835,-0.48176754458956417,-1.3595581679224966
1761141512753500200,6.169500244140625,2.687613528600335,-0.7524477220699191,-1.3087735909722744
1761141512763560200,6.179560302734375,3.552905247300863,-0.7193572072423994,-0.6664191055200993
1761141512773620500,6.189620361328125,3.4885949799537657,-0.18201712077371776,0.008834025449305772
1761141512783679200,6.19967919921875,2.607254628250003,0.04954809395782649,0.17446210228428244
1761141512793739300,6.2097392578125,1.5289058498024939,0.07322649118714034,0.24603198537081478
1761141512803799300,6.21979931640625,0.4867383918046951,0.22554533338751642,0.39374358950406313
1761141512813859300,6.229859375,-0.5595891084820032,0.47554728183522815,0.493499629567936
1761141512823919400,6.23991943359375,-1.2990011156290768,0.5675159924911335,0.40358803410492833
1761141512833978400,6.249978271484375,-1.3535621423780917,0.628164412862435,0.3167592801533639
1761141512844038100,6.2600380859375,-0.8428384793519973,0.7073385604076087,0.29845899576582013
1761141512854098400,6.270098388671875,-0.1117757828772068,0.7173743628621101,0.39142347599342464
1761141512864158500,6.280158447265625,0.5273778607070446,0.7913033762954175,0.4477601341128349
1761141512874217200,6.29021728515625,1.0048287842065096,0.8251359416618943,0.281081159985438
1761141512884277200,6.30027734375,1.4321668925374746,0.8254179734736681,0.19568382707647977
1761141512894337500,6.310337646484375,1.849106940972805,0.7572570951130241,0.140596730626747
1761141512904397300,6.320397216796875,2.3248446308135984,0.6304172332905232,0.08611804839894174
1761141512914457300,6.330457275390625,2.8173107526153323,0.5280116285659372,0.1020714043341577
1761141512924516400,6.340516357421875,3.3019039490848776,0.37639823122117666,0.1563465998791158
1761141512934576400,6.350576416015625,3.741364456886053,0.2450416956918314,0.11530556443855165
1761141512944636400,6.360636474609375,4.097852666968107,0.31380653129499403,0.1313337391756475
1761141512954696400,6.370696533203125,4.3224651399523015,0.4868233301417902,0.11274565082266925
1761141512964755200,6.380755126953125,4.3880566792815925,0.5221285618767142,0.020794512356072662
1761141512974815500,6.3908154296875,4.117938592663407,0.5343510607205331,0.04834975101873278
1761141512984875500,6.40087548828125,3.692736327317357,0.4280420918818563,0.17539660665541887
1761141512994935300,6.410935302734375,3.2594407718867062,0.41667789036780595,0.6786965494215488
1761141513004995300,6.420995361328125,2.5092431668311357,0.46853575910534706,0.9610419571891426
1761141513015054300,6.431054443359375,1.4965215835481882,0.509359754261747,0.6459871428661048
1761141513025114400,6.4411142578125,0.27541970015764233,0.5088469824340194,0.22593904541283844
1761141513035174400,6.45117431640625,-1.0121376459151505,0.40718218613937496,-0.051298371691256756
1761141513045234400,6.461234375,-2.3483774820923804,0.24053758920561522,-0.022888269764930008
1761141513055293400,6.47129345703125,-3.518753386852145,-0.011869118828885257,0.2913574201323092
1761141513065353500,6.481353515625,-4.444056214401126,-0.1300888902137056,0.6157543555572629
1761141513075413200,6.491413330078125,-5.46525102699697,-0.2526141767727211,1.0541095324650407
1761141513085473300,6.501473388671875,-6.434245696756244,-0.46819808811619873,1.3046307920791207
1761141513095533300,6.511533203125,-7.108467731112241,-0.6732122727915644,1.3804213616006076
1761141513105592300,6.52159228515625,-7.307220955696701,-0.760826404967159,1.2133701200947165
1761141513115652400,6.53165234375,-7.07049777368009,-0.8273140894185751,0.8543246267452835
1761141513125712400,6.54171240234375,-6.467023346242308,-0.7754306113157421,0.6815193517573177
1761141513135772200,6.551772216796875,-5.744041664892435,-0.7102371313933282,0.5947371403612196
1761141513145831400,6.56183154296875,-4.911745622342825,-0.7912428052145988,0.6199031457997858
1761141513155891500,6.571891357421875,-3.9641280871331688,-0.8678169993944466,0.609488427030295
1761141513165951200,6.581951171875,-3.0856887175679204,-0.8685315774045884,0.6954016005069017
1761141513176011300,6.59201123046875,-2.2803625150084494,-0.8684060513287782,0.7353229842677712
1761141513186071300,6.6020712890625,-1.3894073627412318,-0.8788482426270842,0.7232591831170022
1761141513196130300,6.61213037109375,-0.44199148758351803,-0.8704533392474055,0.6306425664789974
1761141513206190300,6.6221904296875,0.3068547028630972,-0.8081222630187869,0.4595534477591514
1761141513216250400,6.63225048828125,0.8356248947113751,-0.7526279009424149,0.22612273141667247
1761141513226310100,6.64231005859375,1.17614747389853,-0.732212085705623,0.0355514981135726
1761141513236369400,6.652369384765625,1.3028805874109268,-0.6636265521921217,-0.08524053491204976
1761141513246429400,6.662429443359375,1.341394150200486,-0.55686048723571,-0.27385025888383385
1761141513256489200,6.6724892578125,1.4746417601734398,-0.4463376270290464,-0.39811113706380125
1761141513266549200,6.68254931640625,1.6313959179401396,-0.3921792262641713,-0.4698975855104625
1761141513276609500,6.692609619140625,1.8626047204494476,-0.3456348806995898,-0.4546867185056209
1761141513286668300,6.702668212890625,2.205778106406331,-0.23530513191223143,-0.526912581282854
1761141513296728300,6.712728271484375,2.6236031209826467,-0.16062677968265487,-0.6400374406814575
1761141513306788400,6.722788330078125,2.8476947849631307,-0.0570711920721922,-0.6648417732007801
1761141513316848400,6.732848388671875,3.0461580866903066,-0.06094982360382564,-0.713559626879543
1761141513326907400,6.742907470703125,3.307686624139547,-0.054090833687689154,-0.8411525720916688
1761141513336967200,6.75296728515625,3.6154549347162246,-0.08107008996014482,-0.8746107511878013
1761141513347027200,6.763027099609375,3.8698546431988476,0.012962230703170643,-0.9482055642306804
1761141513357087500,6.77308740234375,4.154668779167532,0.013069774739362765,-1.0154353722862899
1761141513367147500,6.7831474609375,4.458766876798868,0.05324893493687268,-1.0514281844265758
1761141513377206300,6.793206298828125,4.633507357633113,0.20132596114929766,-1.0790512276284396
1761141513387266300,6.803266357421875,4.668466442811489,0.14777707058489323,-0.9227623492859304
1761141513397326300,6.813326416015625,4.670303010588884,0.12843096693884581,-0.7889945148311555
1761141513407386400,6.823386474609375,4.562995313036441,0.1742474548866041,-0.6140441906385123
1761141513417445400,6.8334453125,4.395809193104506,0.26738752914313224,-0.6102732937976718
1761141513427505200,6.843505126953125,4.100947125852108,0.3181240657005459,-0.8191799558669328
1761141513437565400,6.8535654296875,3.73329454767704,0.2713634835693985,-0.9368509342625737
1761141513447625500,6.86362548828125,3.472887707734108,0.1453186263157986,-0.8834240261100232
1761141513457685200,6.873685302734375,3.377624668240547,0.014920122163649647,-0.8520208798475563
1761141513467744000,6.883743896484375,3.407370987206697,-0.09621387394499033,-0.7984270906955003
1761141513477804000,6.893803955078125,3.4569629933714863,-0.129656855471991,-0.7752982901729643
1761141513487864000,6.903864013671875,3.5654338894844053,-0.13372991359718142,-0.8465694825738668
1761141513497923800,6.913923828125,3.5730315050065515,-0.14175481462068856,-0.873507173860073
1761141513507982800,6.92398291015625,3.50098859758079,-0.1694526400918141,-0.8250413952462374
1761141513518043100,6.934043212890625,3.533580369105935,-0.2942426201798022,-0.7886372258260845
1761141513528103000,6.94410302734375,3.4831326228946446,-0.4521684886069968,-0.8027665812045335
1761141513538163000,6.954162841796875,3.252957839608192,-0.5817302496740594,-0.8756640596330165
1761141513548223000,6.964222900390625,3.006528087091446,-0.6038645592665299,-1.0468804579943418
1761141513558282000,6.974281982421875,2.437253450897336,-0.6731875767417251,-1.067163952088356
1761141513568342000,6.984342041015625,1.6075374879688022,-0.7237712242923676,-0.7213638708896934
1761141513578402000,6.994402099609375,0.22995967923104763,-0.5189493473187089,-0.6886252382397652
1761141513588461800,7.0044619140625,-2.1225638166248797,0.04224003596678376,-0.726424369149655
1761141513598521000,7.01452099609375,-6.37792876625061,0.6536165417660027,0.5483503599785268
1761141513608581000,7.0245810546875,-12.221672329866886,1.8354003410510717,0.963468453683704
1761141513618641000,7.034640869140625,-18.577218583917617,2.9697824107572433,0.7241105392493307
1761141513628701000,7.044700927734375,-24.360162518656253,4.149337355011701,0.6790046655226498
1761141513638761000,7.054760986328125,-28.28893521476984,5.737748117706179,1.3098159396320581
1761141513648820000,7.064820068359375,-29.91510550701618,7.35248749987781,2.1401918277740477
1761141513658880000,7.0748798828125,-29.48014640228748,7.831089931499958,2.296771798017621
1761141513668940000,7.08493994140625,-28.131320056259632,6.818286515152454,2.618996211709082
1761141513678999800,7.094999755859375,-26.134558209776877,6.089061555498838,3.2056875543892382
1761141513689059000,7.10505908203125,-24.04640052062273,4.758845801916718,3.3207577026367185
1761141513699118800,7.115118896484375,-20.92446676971912,3.7931881676256656,3.4845442432582376
1761141513709179000,7.125178955078125,-17.517268800991772,3.061435735321045,3.7685719050243494
1761141513719239000,7.135239013671875,-15.096755472493172,1.3607421170100569,4.1388519090935585
1761141513729299000,7.145298828125,-12.359780823874473,0.6146794198021293,3.635395022200048
1761141513739358000,7.15535791015625,-9.207873374989628,-0.1065891009543091,2.1329580771282313
1761141513749418000,7.16541796875,-5.733049146234989,-1.2082249392259865,0.8128898427467792
1761141513759477800,7.175477783203125,-1.6903291684240103,-1.3355764038324356,0.2514436351560056
1761141513769538000,7.1855380859375,2.324944584056735,-0.9441690021909773,-0.5466911945946514
1761141513779597000,7.19559716796875,5.454923109728098,-1.0047157522860914,-1.009497945061326
1761141513789656800,7.20565673828125,7.646333083564042,-1.2248086289539932,-1.2010291094377636
1761141513799716900,7.215716796875,8.909521127533912,-0.4864649816907942,-3.0991707149535417
1761141513809777000,7.22577685546875,9.935597866952419,-0.9007301118284463,-3.4271167211621996
1761141513819836000,7.2358359375,11.494950292944907,-2.562493695503473,-2.7250249753668903
1761141513829896000,7.24589599609375,13.088698325014114,-2.784737685790658,-2.005094498281181
1761141513839956000,7.2559560546875,13.318911102223396,-1.771569966175407,-4.103576013050973
1761141513850016000,7.26601611328125,14.23256791564226,-1.978273419111967,-4.109188299974799
1761141513860076000,7.276075927734375,15.391307743144035,-2.3474124364525077,-2.70926684974283
1761141513870135000,7.286135009765625,15.99848803936243,-1.9907810185074806,-2.073106542755663
1761141513880194800,7.29619482421875,15.741735630273817,-1.2903554523587226,-2.0055660613156854
1761141513890254800,7.3062548828125,14.659928235805033,-0.449829195471853,-1.841210342504084
1761141513900315100,7.316315185546875,12.985025184571743,0.09425461136968806,-1.7669940365619956
1761141513910374000,7.326373779296875,11.35687920833826,0.25407003813683987,-1.6072554561570285
1761141513920434000,7.336433837890625,9.386177685785293,0.3725072516646236,-1.4436029171787201
1761141513930494000,7.346493896484375,7.068363684260845,0.20885803715456275,-1.2225493057198822
1761141513940554000,7.356553955078125,5.69541178175807,0.056162762857228515,-1.14626057741791
1761141513950614000,7.366614013671875,5.151853186100721,0.18233038797397166,-0.8464493633255362
1761141513960672800,7.3766728515625,4.971314832642674,0.22078432953078297,-0.6840162831395864
1761141513970732800,7.38673291015625,5.018454769480228,0.3982938366869464,-0.705924309695512
1761141513980793000,7.39679296875,5.611762607690691,0.6652060764685273,-1.3532295494228601
1761141513990853000,7.40685302734375,6.078495737820863,0.7163591214049607,-0.8964417669847607
1761141514000912000,7.416911865234375,5.868373562481999,0.3899029518952593,-0.5066403392352163
1761141514010972000,7.426971923828125,5.622544113945961,-0.013734328178875148,-1.2915379401415585
1761141514021032000,7.437031982421875,5.71572099481523,-0.2901834444494918,-1.2052888127088546
1761141514031092000,7.447092041015625,6.148261932486295,-0.08106745047848671,-1.0404520323820412
1761141514041152000,7.457152099609375,6.681338297095895,0.12891129780169575,-1.049522496935725
1761141514051211000,7.4672109375,7.207880291500687,0.1677948264148086,-1.0751258708782494
1761141514061271000,7.47727099609375,7.7473419732332225,0.3036212738998234,-1.257246232830733
1761141514071331000,7.4873310546875,8.404508827891945,0.5314738247837871,-1.476449540247768
1761141514081390800,7.497390869140625,9.163073279276489,0.7589267088256776,-1.5908850438535214
1761141514091449900,7.507449951171875,9.88359996868968,0.918670257666707,-1.8148918060295283
1761141514101510100,7.51751025390625,10.574375078439711,0.7743735765434802,-2.1790102187290787
1761141514111570000,7.52756982421875,11.47948501278758,0.7607325892038643,-2.0727999610245225
1761141514121630000,7.5376298828125,12.108612936919927,0.8395953327123076,-2.3614658039852974
1761141514131689000,7.54768896484375,12.484374002748726,0.9649841920088976,-2.783784038327634
1761141514141749000,7.5577490234375,12.843034296172856,1.1959070902489124,-3.096744072328508
1761141514151809000,7.56780908203125,13.018983568274974,1.4598694307163358,-3.2851004060611126
1761141514161869000,7.577869140625,12.824298031520843,1.8093493694715201,-3.4795886666774747
1761141514171928800,7.5879287109375,12.381008320820332,2.0376966450698673,-3.670385671560466
1761141514181988000,7.597988037109375,11.365707826960087,1.753349688221514,-3.510506367510557
1761141514192048000,7.608048095703125,9.847115281379223,1.3271703945368527,-2.8886753223881123
1761141514202108000,7.61810791015625,7.788114128604531,0.6960545114576816,-2.0535116154477
1761141514212168000,7.62816796875,5.024221662443876,-0.16864815530851482,-0.8699138255432247
1761141514222227000,7.63822705078125,1.7201695954144,-1.6130356469936669,0.09422171374708413
1761141514232287000,7.648286865234375,-1.4450123455852268,-3.7546494703948494,-0.41849458440095183
1761141514242347000,7.658346923828125,-4.206664339342713,-5.14040415584743,-1.7348735358104108
1761141514252407000,7.668406982421875,-7.213874563479423,-4.68642353978455,-2.969693563430011
1761141514262466000,7.678466064453125,-10.74713169198036,-2.1765879600182174,-0.6393567649409174
1761141514272526000,7.688526123046875,-18.610678954970837,3.8373105102077125,7.008812594139576
1761141514282585900,7.6985859375,-31.901161250567434,7.618624407905339,10.611253733503817
1761141514292646000,7.70864599609375,-44.31836550488472,7.8000272692382335,9.123453801071644
1761141514302706000,7.718705810546875,-47.80612812566757,6.984811540827154,6.904145766484737
1761141514312765000,7.728764892578125,-41.91502192237377,6.387848687240481,5.664478298833966
1761141514322825000,7.738824951171875,-30.865781260752676,3.6212811566516754,4.481787102380395
1761141514332885000,7.748885009765625,-21.13434286134243,1.7785376132309436,3.846013164362311
1761141514342944800,7.75894482421875,-14.212787694895267,0.25828787502758205,2.3453417676582933
1761141514353004000,7.769004150390625,-9.5719381578058,-0.9951577964764088,0.7035109649434685
1761141514363064000,7.77906396484375,-7.080552719226479,-1.4798863828286528,-0.03633139644488692
1761141514373123800,7.789123779296875,-5.736035468569398,-1.5182807031527161,-0.4412258369732648
1761141514383184000,7.799183837890625,-4.49373297623992,-1.3943668848447501,-0.8445917527601122
1761141514393244000,7.809243896484375,-3.423917632859945,-1.2667688250660896,-1.5643910046815872
1761141514403303000,7.819302978515625,-2.121868235576153,-1.1401887832235544,-1.2942939608514308
1761141514413363000,7.829363037109375,-0.5262532405912875,-0.8571626997154206,-0.7894254535943269
1761141514423423000,7.839423095703125,0.8789210156023501,-0.9103636170923709,-1.3541009254299103
1761141514433483000,7.84948291015625,2.2724212006151676,-0.739011463522166,-1.1044891818761824
1761141514443542000,7.8595419921875,3.7355426188647747,-0.6032797816485166,-1.3442378491938114
1761141514453602000,7.86960205078125,4.99194845534861,-0.25420352832339704,-1.493420110401511
1761141514463661800,7.879661865234375,6.229739023211598,-0.024794907103851436,-1.3931103089123964
1761141514473721900,7.889721923828125,7.453651287847757,0.02047996651418507,-1.4164334629632531
1761141514483781000,7.899781005859375,8.466563425266742,0.07978197724521159,-1.192941299245879
1761141514493841000,7.9098408203125,9.235313755100965,-0.01028086325675249,-1.0114468871720135
1761141514503901000,7.91990087890625,9.754814014300704,0.030308482893556355,-0.8824624876014888
1761141514513961000,7.9299609375,9.784860777518153,0.33610074415691193,-0.5541589001268148
1761141514524021000,7.94002099609375,9.407471818226576,0.7781548486478627,-0.2715443200290203
1761141514534080000,7.950080078125,8.813338635107874,1.141763119868189,-0.04110153345614671
1761141514544140000,7.96014013671875,8.199691188701987,1.228520635214448,0.21740371064916253
1761141514554199800,7.97019970703125,7.5116756067931645,1.1098872415274381,0.48615460056737064
1761141514564260000,7.980260009765625,6.811523012366891,0.8406954759739339,0.7593019718788564
1761141514574318800,7.99031884765625,5.841928038626909,0.7135612343147396,1.1436644965101033
1761141514584379000,8.00037890625,4.786533434787392,0.5254435316435992,1.0694050090134144
1761141514594439000,8.01043896484375,3.7693507804423567,0.4048068353101611,0.49196124101951716
1761141514604499200,8.020499267578124,2.967963086375594,0.3886163096182048,1.293230715534091
1761141514614558000,8.030557861328125,2.3626912541270255,0.34316827139034867,0.9665325904946773
1761141514624618000,8.040617919921875,2.0810773755043743,0.17079466581791639,0.35554059050101783
1761141514634677800,8.050677734375,1.8393717289000748,-0.07760609451085329,1.0339831286288796
1761141514644738000,8.060738037109376,1.4651958864361048,-0.38851606411412354,0.8282195138256997
1761141514654798000,8.070798095703125,0.5263754056662321,-0.49576969339177007,1.08747579549402
1761141514664856800,8.08085693359375,-0.514105706679821,-0.23676409854888913,1.9402530466668306
1761141514674916900,8.090916748046874,-1.7568951057434081,0.15008023296073078,2.2353422006733714
1761141514684977200,8.10097705078125,-3.47232422863245,0.8839768376871943,1.8225693549200892
1761141514695037000,8.111036865234375,-4.909920160481334,1.5844634863734244,1.4348111234359442
1761141514705096000,8.121095947265625,-5.356858456817269,1.8687194039374588,1.083240349881351
1761141514715156000,8.131156005859374,-4.8450610270798204,2.060353298036009,0.6716492612585425
1761141514725216000,8.141216064453126,-3.811721018660068,2.0796838753193616,0.3926207960192114
1761141514735276000,8.151276123046875,-2.6302596562623974,1.9339134683817625,0.38644349562376734
1761141514745335000,8.1613349609375,-1.5393354738801717,1.6949452839173376,0.2091149710576981
1761141514755394800,8.171394775390626,-0.4727046057552099,1.5872100086025893,-0.11774418976232409
1761141514765455000,8.181455078125,0.7075783605128526,1.4097935865573583,-0.5109122444007546
1761141514775515100,8.19151513671875,1.847827422556281,1.2501985062763095,-0.6329156259775162
1761141514785574000,8.201573974609374,2.7075106537252664,1.3673882770262658,-0.7472367094233632
1761141514795634000,8.211634033203126,2.943585600966215,0.9487820489443838,-0.5051265006061643
1761141514805694200,8.221694091796875,2.685101253518462,0.3239604437038302,-0.3006000994477421
1761141514815754000,8.23175390625,1.9002514372766017,0.0667629211962223,-0.3029871407147497
1761141514825814000,8.24181396484375,1.0025660999715327,-0.11737038801386952,-0.5023883808791637
1761141514835872800,8.251872802734376,0.5337018030315638,-0.503928303797543,-0.7985507901404052
1761141514845933000,8.26193310546875,0.7617214541107415,-0.7284354167111218,-0.871930937519297
1761141514855993000,8.2719931640625,1.3781184914857147,-1.0042198585279285,-0.602486585444212
1761141514866053000,8.28205322265625,1.9861182873934506,-1.14930973585546,-0.4451300048049539
1761141514876112000,8.29211181640625,2.3167636156886813,-1.1565559075914322,-0.3296612856939435
1761141514886172200,8.302172119140625,2.2661644783079624,-1.2385007619589568,-0.15319339654520153
1761141514896232000,8.31223193359375,1.9739993950545787,-1.2476277790054677,-0.09857019128017126
1761141514906292000,8.3222919921875,1.3904162475228308,-0.9111116589806973,0.021615108023956418
1761141514916351000,8.33235107421875,0.3483639403373003,-0.36427141130417584,0.1525665698837489
1761141514926411000,8.342410888671875,-0.9896312150746583,-0.14567030756399035,0.15894596872255204
1761141514936471000,8.352470947265624,-2.226927277418971,-0.026859584548696875,0.28390060132034123
1761141514946531000,8.362531005859376,-3.243686737915873,0.22012319874092937,0.4984869895264506
1761141514956590800,8.3725908203125,-3.810498198866844,0.2799030561167747,0.47420068953186273
1761141514966650000,8.382650146484375,-3.7835494016647337,0.15101882898509503,0.2738288507696241
1761141514976710100,8.392710205078124,-3.006987521296739,-0.02665229847356677,0.016010127623751758
1761141514986770000,8.40277001953125,-1.7817606669306754,-0.26508294199518856,-0.1848413844142109
1761141514996830000,8.412829833984375,-0.3405845385074615,-0.4330642308928072,-0.3122879799582064
1761141515006889200,8.42288916015625,0.393676661747694,-0.5372318037886172,-0.21023308836743235
1761141515016949000,8.432948974609374,1.3460048588663338,-0.7294527770601212,-0.3525696483988315
1761141515027009000,8.443009033203126,1.987301944220066,-0.6362791841264813,-0.44216735560707743
1761141515037069000,8.453069091796875,2.049125070926547,-0.6321426688436418,-0.28945611655563114
1761141515047128000,8.463128173828125,1.770923631095886,-0.7735874676670879,-0.03358202467150986
1761141515057188000,8.47318798828125,1.3887106126487254,-0.897848930368945,0.17103410059697924
1761141515067248000,8.483248046875,0.9746306298196316,-0.8476299514122306,0.2692841200120747
1761141515077308000,8.493307861328125,0.6381716468095779,-0.7306504624120891,0.29513445445299147
1761141515087367200,8.5033671875,0.4077010954469442,-0.7031118095580488,0.34887123227231204
1761141515097427000,8.513427001953126,0.257605811047554,-0.6750652802471071,0.5215246776994318
1761141515107487000,8.523487060546875,0.10934066468477248,-0.5532660429403186,0.48626872846633196
1761141515117547000,8.533547119140625,-0.02049684458374977,-0.4311826549299061,0.3790151722539216
1761141515127607000,8.54360693359375,-0.1008960769444704,-0.3920873467296362,0.29649785176068544
1761141515137666000,8.553666015625,-0.09358546167016028,-0.4480786985427141,0.23862222057096658
1761141515147726000,8.56372607421875,0.047838440495729447,-0.4930816233515739,0.21039295510426162
1761141515157785900,8.573785888671875,0.241367208430171,-0.501853031893447,0.18990787402354178
1761141515167846000,8.583845947265624,0.4529197088330984,-0.5794269046351314,0.10779694237411022
1761141515177905200,8.5939052734375,0.6203922444909811,-0.646039895966649,0.10914558050408958
1761141515187965000,8.60396484375,0.8009031254202127,-0.6778326991338283,0.052185091397911304
1761141515198025000,8.61402490234375,0.8763765918165445,-0.6350579717684537,-0.06623860506117343
1761141515208085000,8.6240849609375,0.9326122737795114,-0.612148695748113,-0.10766235620900988
1761141515218144000,8.63414404296875,0.9854448693007231,-0.6240997207067907,-0.05266140367276966
1761141515228204000,8.6442041015625,1.083204986307025,-0.6047204819761216,0.010466522021964192
1761141515238264000,8.65426416015625,1.2650965079396963,-0.6011969840250909,-0.05006853763535619
1761141515248323800,8.66432373046875,1.564687941801548,-0.5584537843091413,-0.1446979554004967
1761141515258383000,8.674383056640625,2.081007232877612,-0.4585103319143876,-0.23983707625344394
1761141515268443100,8.684443115234375,2.744016383823752,-0.3050849532442167,-0.36901305287331343
1761141515278503000,8.6945029296875,3.237667331495881,-0.22764625118952242,-0.42757337839156384
1761141515288563000,8.70456298828125,3.742815240216255,-0.12552026712391526,-0.5392393442187458
1761141515298623000,8.714623046875,4.239928311040997,0.06646284227110445,-0.7784725362949073
1761141515308682000,8.724681884765625,4.621559730207919,0.20943813859745858,-0.9992975996948779
1761141515318742000,8.734741943359374,4.817879005643725,0.19801468117684123,-1.236425270859152
1761141515328802000,8.744802001953126,4.6934407250702375,0.1612456970322877,-1.1363662292607128
1761141515338861800,8.75486181640625,4.34841089759171,0.08370119651556014,-0.8865594015263021
1761141515348921000,8.764921142578125,3.889714358922839,0.09846073955632746,-1.0675849539794027
1761141515358980900,8.77498095703125,3.5284810001403093,0.25474742594175037,-1.0275791068054736
1761141515369041000,8.785041015625,3.1375428234457967,0.3984351813863963,-0.8510796534746885
1761141515379101000,8.795100830078125,2.6897926262050866,0.6137677848499268,-0.36573169311508535
1761141515389160000,8.805159912109374,2.3797353279083966,0.6175599436745047,-0.26069340179935097
1761141515399220000,8.815219970703126,2.4876018283873793,0.11200732661075889,-1.0280639677129686
1761141515409280000,8.825280029296875,2.7447417754888535,-0.2722976956795901,-1.3998172592051326
1761141515419339800,8.83533984375,2.3822394196838137,-0.48420909252278505,-1.52199870076254
1761141515429399000,8.84539892578125,1.7041531111150978,-0.30845256651379166,-0.8593823485262692
1761141515439459000,8.855458984375,0.6387251890391111,-0.05503774088267237,0.1723280128650367
1761141515449518800,8.865518798828125,-0.687271485543251,0.18113745186235755,1.1110160994268954
1761141515459579000,8.875578857421875,-2.7974855236828327,0.023881226325035095,1.9629528081223369
1761141515469638000,8.885637939453124,-6.025287879246473,-0.025271840433217584,2.2017795382894576
1761141515479698000,8.895697998046876,-8.987590455642342,0.3332467794978991,1.9212622227318583
1761141515489757700,8.9057578125,-12.234653391993046,0.3399478845717385,2.3316135404266416
1761141515499817700,8.915817626953125,-15.453730004787444,0.9944985288500785,2.993121785290539
1761141515509878000,8.9258779296875,-18.082028005588054,1.4635679929733276,2.853196012727916
1761141515519936800,8.935936767578125,-20.15959649618864,1.6375281370848416,2.7764953426241874
1761141515529996800,8.945996826171875,-22.06607776776552,2.0898031182736156,3.0702596777677535
1761141515540056800,8.956056884765625,-23.41054124240875,2.022810626105219,2.8574136304229496
1761141515550116900,8.966116943359374,-24.106622641873358,1.4688231370225548,2.7963150185987353
1761141515560175900,8.97617578125,-23.94447159349918,0.9130275756046176,2.843492657098174
1761141515570236000,8.98623583984375,-22.52199548937082,0.5908964662197977,2.6726456765711304
1761141515580295700,8.996295654296874,-20.523246268463133,0.5948238322639837,2.025976542790234
1761141515590356000,9.00635595703125,-17.48183859117031,0.8505440852932632,1.641952967789769
1761141515600415000,9.0164150390625,-13.469299232089519,0.5063840629192069,1.4285956099219619
1761141515610474800,9.026474853515625,-9.222073165255784,-0.08545973062068224,0.49616841038577253
1761141515620534800,9.03653466796875,-5.875220651897788,-0.13450553761217743,0.2504412531804293
1761141515630595000,9.046594970703126,-3.224225666120648,0.44921142889969046,0.251835045626387
1761141515640653800,9.05665380859375,-1.044753967359662,0.8695809403270482,-0.17232414040751753
1761141515650713900,9.0667138671875,1.6520172656863927,1.1664366656146943,-0.28842048989757896
1761141515660774000,9.07677392578125,5.506978291136026,0.6635870969645679,0.09313311479277908
1761141515670834000,9.086833984375,9.866201090121269,-0.1988495610984042,1.0073519460085778
1761141515680893000,9.096892822265625,13.1510878534317,0.13689349219463764,0.10340484489500522
1761141515690952700,9.10695263671875,16.20770245220661,1.1268281471952795,-0.5361160245664417
1761141515701012700,9.1170126953125,18.377478101861477,1.4088286870479583,-1.0783170681349932
1761141515711073000,9.127072998046875,18.569181407934426,1.062112733113393,-1.6501108475431798
1761141515721133000,9.137133056640625,17.964569500899312,0.30461181930713355,-1.5983593252569437
1761141515731191800,9.14719189453125,16.72582031713724,-0.12128361593484878,-1.522480054538697
1761141515741251800,9.157251953125,15.177749163615703,-0.34645259029064324,-1.4301910624198615
1761141515751312000,9.167311767578125,13.68004509228468,-0.684664590980485,-0.9769278008460998
1761141515761372000,9.177371826171875,12.112294255781173,-0.853363380497694,-0.6942667512580752
1761141515771431000,9.187430908203124,10.217633185857533,-0.8049968975398689,-0.7688860850431024
1761141515781490700,9.19749072265625,8.434257484945654,-0.6779919813487678,-1.0506556656841188
1761141515791551000,9.207551025390625,7.004193702167272,-0.7479751797657459,-1.4928556083865463
1761141515801611000,9.217611083984375,5.918701481705904,-0.7840814622178673,-1.6617285123616456
1761141515811669800,9.227669677734376,5.117348858952522,-0.6927335503414273,-1.6173402123197913
1761141515821729800,9.237729736328125,4.722577387705445,-0.721036538631469,-1.6988745861902832
1761141515831790000,9.2477900390625,4.831729251819849,-0.8588513834547251,-1.9350974174693225
1761141515841849900,9.257849853515625,5.371488455194235,-1.050132445527613,-2.2637194232434035
1761141515851908900,9.267908935546876,6.041207332912087,-1.241611733586341,-2.6937019086033103
1761141515861969000,9.277968994140625,6.4701715811401606,-1.242735623049736,-2.93215322958678
1761141515872029000,9.28802880859375,6.774315271478891,-1.211281184991449,-2.896216531547904
1761141515882089000,9.2980888671875,6.822151373887062,-1.176432720580697,-2.7855159766867756
1761141515892147700,9.308147705078126,6.553036326831579,-1.1159170962762086,-2.663510183957219
1761141515902207700,9.318207763671875,6.35172523445785,-1.1037298879414796,-2.362799975198507
1761141515912268000,9.32826806640625,6.155325879523158,-0.9990911904025822,-2.099554696959257
1761141515922327800,9.338327880859374,5.934362576696277,-0.8908676931794732,-2.030841372347623
1761141515932386800,9.34838671875,5.856574988138675,-0.880815304916352,-1.889932726227492
1761141515942446800,9.35844677734375,5.90378682116866,-0.9253533886924385,-1.7440113665118813
1761141515952507000,9.3685068359375,5.985106090983748,-0.9272319689806551,-1.5771563782304525
1761141515962567000,9.37856689453125,6.080054657700657,-0.804246955955401,-1.335594962402433
1761141515972627000,9.388626953125,6.330970615720749,-0.6802602916069328,-1.1734202408917247
1761141515982685700,9.398685791015625,6.617742315497994,-0.5595899121996015,-1.0591416814133525
1761141515992746000,9.40874609375,6.955675462713837,-0.36025812054220585,-0.8500701841711997
1761141516002806000,9.418805908203124,7.290746790757775,-0.10172970562386326,-0.8229792020194232
1761141516012865800,9.42886572265625,7.345632227155566,0.3861252965200692,-0.8800053037077188
1761141516022924800,9.4389248046875,7.00917792032063,0.8097280907802283,-0.8794070455536246
1761141516032985000,9.448985107421874,6.328392874187231,0.7563409301161765,-0.6225457692630588
1761141516043044900,9.459044921875,5.483771603071689,0.7501862068787216,0.16213701984882353
1761141516053105000,9.46910498046875,4.181826250684261,0.9201097889505326,0.3519949903160333
1761141516063163600,9.47916357421875,2.663907074320316,0.13288666770607233,0.22829919867292045
1761141516073224000,9.489223876953124,0.7643114706039428,-1.3291409639574587,0.13024170615524053
1761141516083284000,9.499283935546876,-2.1319132442504167,-2.5751333968460557,-0.3855945506442338
1761141516093344000,9.509343994140625,-5.050355636131763,-3.9336321188434957,-0.6155934659071266
1761141516103402800,9.51940283203125,-6.827945739379524,-3.477608306515217,0.6036533642012626
1761141516113463000,9.529463134765624,-8.36886000688374,-1.4965885113045572,2.0921241085670887
1761141516123522800,9.539522705078125,-10.379036046212912,0.4867490958618,3.8589188231647014
1761141516133582800,9.549582763671875,-14.309628943490981,2.1894863122969865,4.99053098976612
1761141516143641900,9.559641845703124,-22.359063519752024,4.5867879842951895,5.9517883432716125
1761141516153702000,9.569701904296876,-29.34583028630018,6.175727447038889,6.436181048732996
1761141516163762000,9.579761962890625,-31.26294284200668,8.110417745012045,5.350018966186046
1761141516173822000,9.589822021484375,-30.020632750892638,8.95619052425027,3.3124154062271116
1761141516183880700,9.599880615234374,-25.866295395636556,6.6607666337102645,1.2586352029711008
1761141516193941000,9.60994091796875,-19.67979053399563,4.692203876751661,0.9517872951749712
1761141516204001000,9.6200009765625,-13.853545217669009,3.220393248350918,0.6591967530511319
1761141516214060800,9.630060791015625,-9.224043588545918,1.9606676197946071,-0.167322240466997
1761141516224119800,9.640119873046874,-5.976771977880596,0.9259364492774009,-0.6350142056919634
1761141516234180000,9.65018017578125,-3.789559455734491,0.4087968547943979,-0.46513628939278423
1761141516244240000,9.660239990234375,-2.048403186392784,0.11713657925799488,-0.3356035352244973
1761141516254300000,9.6702998046875,-0.21405542313456535,-0.0279297710634768,-0.7318491706773639
1761141516264360000,9.68035986328125,1.6422878988325595,-0.06878660904355346,-0.67644007573165
1761141516274419000,9.6904189453125,3.2025030791342255,-0.23574334066640584,-0.26377909285500645
1761141516284479000,9.70047900390625,4.580741982129216,-0.051723246039822694,-0.7329302439123392
1761141516294539000,9.7105390625,5.590694100698828,-0.487074893750064,-0.7352425394427031
1761141516304598800,9.720598876953124,5.880201947441697,-1.145556666932255,0.10526822761408984
1761141516314658000,9.730657958984375,6.987248412585258,-1.469986627843976,0.32043862625323233
1761141516324717800,9.7407177734375,8.15375010626018,-1.4851102549567818,0.25253402420859783
1761141516334777900,9.75077783203125,8.593980429390072,-1.4033970173880457,0.10019315283950418
1761141516344838000,9.760837890625,8.712777489206195,-1.2620872431211172,-0.35347357496861365
1761141516354897000,9.77089697265625,8.803096058034896,-1.2563678425610065,-0.721828127400577
1761141516364957000,9.78095703125,8.894713434502481,-1.2273963073596357,-0.8436495765391737
1761141516375017000,9.791016845703124,8.655340030238031,-1.0402877817310392,-0.8909055409718304
1761141516385076700,9.80107666015625,8.057417391708492,-1.0350734080836177,-0.7426064192742109
1761141516395136000,9.811135986328125,7.277928810238838,-1.3036556634366512,-0.3853737840330228
1761141516405196000,9.821196044921875,6.191380943244695,-1.4581830850645898,0.13110511805154382
1761141516415255800,9.831255859375,5.038923557013273,-1.4024215964846312,0.5892165868414565
1761141516425315800,9.84131591796875,3.9645091954052445,-1.2452661644406615,0.6792742031790315
1761141516435374800,9.851374755859375,3.0301135453402996,-1.2518056492120027,0.2002314073782414
1761141516445435000,9.861434814453125,2.3750042077332734,-1.3118151506252587,-0.2382852254352532
1761141516455495000,9.871494873046874,1.8495102610766887,-1.416496445196867,-0.26986486077578736
1761141516465555000,9.881554931640625,1.2310077758550644,-1.3650215478949248,-0.2348531868936494
1761141516475614500,9.891614501953125,0.5308773932605981,-1.19947172392793,-0.21935314595019442
1761141516485674500,9.901674560546875,-0.31327742938697334,-0.9875258402932434,-0.16161456687729805
1761141516495734800,9.91173486328125,-1.3193547523498534,-0.9275515563238411,0.11909671861613169
1761141516505794600,9.921794677734376,-2.3001988498568533,-0.6280030848208814,0.41434747465886174
1761141516515853600,9.931853515625,-3.0434745466947555,-0.1313309992292896,0.23987150824600828
1761141516525913600,9.94191357421875,-3.768713067060709,0.035217845712415874,0.1836836292138323
1761141516535973600,9.9519736328125,-4.006310109302401,0.18350297541730104,0.4993565754352137
1761141516546033700,9.96203369140625,-3.9117806447803973,0.6296590353343635,0.5922815273700281
1761141516556092700,9.9720927734375,-3.540778756177425,0.956527986896038,0.5430990518542006
1761141516566152400,9.98215234375,-2.978729979583621,1.1005420516856015,0.6915609263654798
1761141516576212700,9.992212646484376,-2.645359610238671,1.2270621069692074,0.8527314392697065
1761141516586272800,10.002272705078125,-2.625568868097663,1.4840459867261349,0.7493256445266306
1761141516596331500,10.01233154296875,-2.9981711776345965,1.4808802161715924,0.5844880604822188
1761141516606391600,10.0223916015625,-3.3743355635672807,1.4651593538179992,0.643470776131004
1761141516616451800,10.032451904296876,-3.2310382687449453,1.3973350870005785,0.7619555551275611
1761141516626511600,10.04251171875,-2.511553197339177,1.2365217169709504,0.9221198135986923
1761141516636570600,10.052570556640624,-1.4965455489456652,1.0123198706142604,0.9278614259906113
1761141516646630400,10.06263037109375,-0.10737959374487399,0.6695444709990174,0.9719193250343203
1761141516656690700,10.072690673828125,1.2910060252219437,0.46459918684139845,1.0854816990673541
1761141516666750700,10.082750732421875,2.3170792575091124,0.3062657422603108,1.3095678100898862
1761141516676809500,10.0928095703125,2.8818600894153117,0.03100672169025056,1.3332172734856604
1761141516686869500,10.102869384765626,3.076487173980474,-0.21931049411855635,1.1363689326744526
1761141516696929800,10.1129296875,3.1193156773597,-0.4566647405803203,0.8177573026526719
1761141516706989600,10.122989501953125,2.9898510930567976,-0.5985258651196956,0.4775220159742981
1761141516717048600,10.133048583984374,2.748369902858138,-0.5687108282988891,0.16436609407514333
1761141516727108600,10.143108642578126,2.276727957898378,-0.575981878747791,-0.10479308438301085
1761141516737168600,10.153168701171875,1.7092349444240331,-0.43777460054084655,-0.12746646928824484
1761141516747228700,10.163228759765625,1.3322966515094041,-0.3692963633267209,-0.07113843286670744
1761141516757287700,10.17328759765625,1.0815011049985885,-0.46094687487892805,-0.04909961953796446
1761141516767347500,10.183347412109375,0.9860410816282034,-0.4382830249870196,0.019007117482647298
1761141516777407700,10.19340771484375,1.1432406450748442,-0.46216841603051867,0.08365143908970057
1761141516787467800,10.2034677734375,1.3306167355984448,-0.4657809805044904,0.17814294622149318
1761141516797527600,10.213527587890624,1.319704296439886,-0.47983200994972136,0.2560585450729355
1761141516807586600,10.223586669921875,1.0651152028650044,-0.5836754289250821,0.3402123076615855
1761141516817646800,10.233646728515625,0.5149123468875885,-0.534346165349707,0.44995643858071416
1761141516827706600,10.24370654296875,-0.07484335179924964,-0.421605811756663,0.5982119403323158
1761141516837766700,10.2537666015625,-0.5219131655603647,-0.32579270063228905,0.601097907564789
1761141516847825400,10.263825439453125,-0.9043769438982009,-0.08757019256916827,0.5819459017187356
1761141516857885700,10.2738857421875,-1.2530308070927858,0.13188192937662824,0.5864526020208374
1761141516867945700,10.28394580078125,-1.4708067120552062,0.22105269814338535,0.6012930282780901
1761141516878004500,10.29400439453125,-1.4083242446571587,0.1787524746882729,0.6965701328296214
1761141516888064500,10.304064453125,-1.144179387229681,0.05166232789913192,0.8342317598525434
1761141516898124800,10.314124755859375,-0.7925561528354883,-0.026649101869482546,0.9376555286437273
1761141516908184600,10.3241845703125,-0.6875988178014755,0.05799023401271552,1.0042497422095387
1761141516918244600,10.33424462890625,-0.8768991543859243,0.08654537043292075,0.9472916642561554
1761141516928303600,10.3443037109375,-1.1432464902937411,0.43636641424335537,0.9683397129818797
1761141516938363600,10.35436376953125,-1.5292553938925266,0.6088720486976206,0.9416126687716692
1761141516948423700,10.364423583984374,-2.165406348529458,0.5776448800565674,0.7903119541052729
1761141516958483700,10.374483642578125,-2.5819354780763386,0.661982145985961,0.438755209076032
1761141516968542500,10.38454248046875,-2.348829317513108,0.6793371854126453,0.06171513628736138
1761141516978602800,10.394602783203124,-1.6596230645149945,0.4445850112080574,-0.2527314099442214
1761141516988662800,10.404662841796876,-0.7414712777644396,0.09949432038776576,-0.31958544348999857
1761141516998722600,10.41472265625,0.4604039271086454,-0.1079912228371948,-0.38172976497486233
1761141517008781600,10.424781494140625,1.474647020870447,-0.20438363168686627,-0.5715487186059356
1761141517018841900,10.434841796875,1.950857588919997,-0.194878465510346,-0.6576862023577094
1761141517028901600,10.444901611328126,1.932522890806198,-0.17668123963847757,-0.6767033297777175
1761141517038961700,10.454961669921875,1.5935931337684393,-0.1375365758711472,-0.776000374027714
1761141517049020400,10.4650205078125,1.0077157378196715,-0.1168329201363027,-0.7705053568080067
1761141517059080700,10.475080810546874,0.4338222096532583,-0.05591101658586412,-0.7430836083319038
1761141517069140700,10.485140625,-0.0439016855686903,0.15270619755014778,-0.8240609328415245
1761141517079200800,10.49520068359375,-0.23108196125924585,0.3130328069761395,-0.9696811907187104
1761141517089259500,10.505259521484374,-0.26137188558280466,0.42111726105473934,-0.9641757251702249
1761141517099319800,10.51531982421875,-0.2728326062738895,0.4217237755805254,-0.8605567260678857
1761141517109379600,10.525379638671875,-0.16754034019708633,0.45600401164926585,-0.7693977608922868
1761141517119439600,10.535439697265625,0.027959435549378395,0.5257639227043837,-0.6702067343000322
1761141517129498600,10.54549853515625,0.05769464859962463,0.571921789702028,-0.7077209838539361
1761141517139558700,10.55555859375,-0.035064883640408516,0.48898865494951604,-0.6971728479631245
1761141517149618700,10.56561865234375,-0.0008662614405155182,0.29076179232671856,-0.6300500074133276
1761141517159678700,10.5756787109375,0.18011340604424475,0.17071940862461923,-0.6495905741855502
1761141517169737500,10.585737548828124,0.34103228227496146,0.07231310266926884,-0.7664910066001117
1761141517179797800,10.5957978515625,0.4616115493327379,0.0942619726922363,-0.848391145043075
1761141517189857800,10.60585791015625,0.6506009202718734,0.12994089657776056,-0.9027658554397523
1761141517199917600,10.61591748046875,0.8182564112812281,0.06258373581543565,-0.9539799098484217
1761141517209976600,10.6259765625,0.9630752165824175,0.03610504034310579,-1.0201935265988111
1761141517220036600,10.63603662109375,1.0471136822283267,0.02123188086003065,-1.1566117294318974
1761141517230096600,10.6460966796875,1.0535720645874738,0.017170988096669317,-1.197320244982466
1761141517240156700,10.65615673828125,0.9646171853274106,0.08769918011054396,-1.1495178256481886
1761141517250215400,10.66621533203125,0.6202899531602859,0.10195267332531512,-0.9891410934701561
1761141517260275700,10.676275634765625,0.1658329517573118,0.08024046160243452,-0.8647694483920931
1761141517270335700,10.686335693359375,-0.2663298002511263,0.0770673845242709,-0.7435586054325103
1761141517280395500,10.6963955078125,-0.6053419748753309,0.10634542839154601,-0.5154949690811336
1761141517290454500,10.70645458984375,-0.7889969990491866,0.0588967909310013,-0.36393465363048016
1761141517300514800,10.716514892578125,-0.6489782875061034,0.0540908519539982,-0.2969425633208826
1761141517310574600,10.72657470703125,-0.3381418215304613,0.17279818766005337,-0.1546500981595367
1761141517320634600,10.736634521484374,-0.004914660048484802,0.001116948265954852,-0.10351477154288441
1761141517330693600,10.746693603515626,0.2699737097114324,-0.08111359117515385,-0.08750679934360087
1761141517340753700,10.756753662109375,0.6323761122733355,-0.03620645489096641,-0.03785462395679205
1761141517350813700,10.766813720703125,0.9316191710889339,-0.20227321540415286,0.2918010357139632
1761141517360873700,10.776873779296874,0.6605255174368619,-0.29077706296108663,0.4352761713212356
1761141517370932500,10.786932373046875,0.2526315297663212,-0.12151472127698361,0.20091520665762944
1761141517380992800,10.79699267578125,-0.1575637205839157,0.11799071186929941,-0.007080423247627914
1761141517391052800,10.807052734375,-0.5830880574911832,0.2279025275055319,-0.0029553609405644234
1761141517401112600,10.817112548828124,-0.759514299455285,0.24186704771108924,-0.02147038405733183
1761141517411171600,10.827171630859375,-0.716167909681797,0.3487251748651266,-0.059527252587955444
1761141517421231600,10.837231689453125,-0.5659060365438461,0.31000870991460977,0.036010840987320984
