time,seconds_elapsed,z,y,x
1761141506627076000,0.043076171875,0.21458561718463898,0.160434752702713,-0.06353451311588287
1761141506637136100,0.05313623046875,0.2236967533826828,0.14945116639137268,-0.0644182562828064
1761141506647196400,0.063196533203125,0.23483781516551971,0.126881405711174,-0.06220144405961037
1761141506657256200,0.073256103515625,0.24739089608192444,0.10456755757331848,-0.0703953206539154
1761141506667316200,0.083316162109375,0.25960391759872437,0.09034174680709839,-0.09095412492752075
1761141506677375200,0.093375244140625,0.2679528594017029,0.07794294506311417,-0.11677874624729156
1761141506687435300,0.103435302734375,0.2752571105957031,0.07206720858812332,-0.1416872888803482
1761141506697495300,0.113495361328125,0.2861449122428894,0.0750904306769371,-0.16018587350845337
1761141506707555300,0.123555419921875,0.3046503961086273,0.07875174283981323,-0.17096662521362305
1761141506717615000,0.133614990234375,0.3172086179256439,0.07904139906167984,-0.17279449105262756
1761141506727675100,0.143675048828125,0.32140761613845825,0.0816132128238678,-0.17047648131847382
1761141506737734400,0.153734375,0.32260099053382874,0.07264848053455353,-0.17942465841770172
1761141506747794200,0.163794189453125,0.3398343026638031,0.056939296424388885,-0.1831410974264145
1761141506757854200,0.173854248046875,0.34689226746559143,0.05739147961139679,-0.18225489556789398
1761141506767914200,0.183914306640625,0.3546505868434906,0.048384398221969604,-0.18496173620224
1761141506777974000,0.19397412109375,0.37242600321769714,0.06159939244389534,-0.19961796700954437
1761141506788034300,0.204034423828125,0.39097943902015686,0.09318234771490097,-0.22219304740428925
1761141506798093300,0.21409326171875,0.40981805324554443,0.13134709000587463,-0.24009037017822266
1761141506808153000,0.224153076171875,0.43559664487838745,0.1584005355834961,-0.24954111874103546
1761141506818213000,0.234213134765625,0.4494211971759796,0.1848680078983307,-0.23529654741287231
1761141506828273400,0.2442734375,0.46402305364608765,0.20307417213916779,-0.21253317594528198
1761141506838333200,0.254333251953125,0.4745120108127594,0.2125118225812912,-0.180178701877594
1761141506848393200,0.264393310546875,0.4711340367794037,0.2261005938053131,-0.15109138190746307
1761141506858453200,0.274453369140625,0.46562716364860535,0.22276681661605835,-0.12924957275390625
1761141506868512300,0.28451220703125,0.4591713845729828,0.21779842674732208,-0.11695723235607147
1761141506878572300,0.294572265625,0.4566223621368408,0.2067432701587677,-0.10747180134057999
1761141506888632300,0.30463232421875,0.44932955503463745,0.19007401168346405,-0.10057874023914337
1761141506898692000,0.314692138671875,0.4337940514087677,0.174918994307518,-0.10454905778169632
1761141506908752100,0.324752197265625,0.4253968298435211,0.17022012174129486,-0.10977444797754288
1761141506918812200,0.334812255859375,0.4152046740055084,0.15840362012386322,-0.11474811285734177
1761141506928871200,0.34487109375,0.4114469587802887,0.14669397473335266,-0.10746729373931885
1761141506938931200,0.35493115234375,0.39879685640335083,0.13872985541820526,-0.09859603643417358
1761141506948991200,0.3649912109375,0.4007242023944855,0.1379823088645935,-0.09062839299440384
1761141506959051000,0.375051025390625,0.399170845746994,0.13416139781475067,-0.09357917308807373
1761141506969111300,0.385111328125,0.39490818977355957,0.1341978907585144,-0.10526512563228607
1761141506979171300,0.39517138671875,0.39156439900398254,0.12906673550605774,-0.11770707368850708
1761141506989230000,0.40522998046875,0.3867001235485077,0.13093866407871246,-0.13843071460723877
1761141506999290000,0.4152900390625,0.3844825029373169,0.1394360065460205,-0.16275736689567566
1761141507009350400,0.425350341796875,0.3834502696990967,0.15278750658035278,-0.20236602425575256
1761141507019410200,0.43541015625,0.38870397210121155,0.16378945112228394,-0.23343831300735474
1761141507029470200,0.44547021484375,0.3943658471107483,0.1592940390110016,-0.25396567583084106
1761141507039530200,0.4555302734375,0.3984968364238739,0.15475986897945404,-0.2632647156715393
1761141507049589200,0.46558935546875,0.40796515345573425,0.15754100680351257,-0.25931310653686523
1761141507059649300,0.475649169921875,0.4147399961948395,0.15833382308483124,-0.25028228759765625
1761141507069709300,0.485709228515625,0.4138196110725403,0.1593916267156601,-0.24139586091041565
1761141507079769000,0.49576904296875,0.4143367409706116,0.16169288754463196,-0.2459721863269806
1761141507089829000,0.5058291015625,0.41848570108413696,0.17056015133857727,-0.2633801996707916
1761141507099889200,0.51588916015625,0.42078647017478943,0.18436536192893982,-0.2890627682209015
1761141507109949200,0.52594921875,0.4146929085254669,0.19248773157596588,-0.3120988607406616
1761141507120008200,0.53600830078125,0.4096943736076355,0.19502446055412292,-0.33722785115242004
1761141507130068200,0.546068115234375,0.40786266326904297,0.1961488425731659,-0.36025914549827576
1761141507140128300,0.556128173828125,0.4058598577976227,0.20713312923908234,-0.3827303946018219
1761141507150188300,0.566188232421875,0.3980487883090973,0.21405495703220367,-0.3917097747325897
1761141507160248300,0.576248291015625,0.39314207434654236,0.21515098214149475,-0.3903117775917053
1761141507170308000,0.58630810546875,0.3904549479484558,0.2105889916419983,-0.3872123956680298
1761141507180367000,0.5963671875,0.3937753438949585,0.2133040726184845,-0.37849724292755127
1761141507190427400,0.606427490234375,0.39933815598487854,0.22638100385665894,-0.3727506697177887
1761141507200487200,0.616487060546875,0.4032531976699829,0.24469830095767975,-0.3597578704357147
1761141507210547200,0.626547119140625,0.4171367883682251,0.2600564956665039,-0.34632328152656555
1761141507220607200,0.636607177734375,0.4174642562866211,0.2680373191833496,-0.3433200418949127
1761141507230667000,0.6466669921875,0.42321377992630005,0.2756102681159973,-0.3469182252883911
1761141507240726300,0.656726318359375,0.4265761077404022,0.2698148488998413,-0.36490893363952637
1761141507250786300,0.666786376953125,0.42126762866973877,0.2553653419017792,-0.3920518755912781
1761141507260846000,0.67684619140625,0.4297705888748169,0.2345830649137497,-0.39903372526168823
1761141507270906000,0.686906005859375,0.4333626627922058,0.2229282706975937,-0.3833650052547455
1761141507280966400,0.69696630859375,0.43641483783721924,0.221383199095726,-0.34987854957580566
1761141507291026200,0.707026123046875,0.438863068819046,0.22038371860980988,-0.3040285110473633
1761141507301086200,0.717086181640625,0.44866782426834106,0.2163739800453186,-0.2552865445613861
1761141507311145200,0.727145263671875,0.45461466908454895,0.20637860894203186,-0.21470530331134796
1761141507321205200,0.737205322265625,0.4599184989929199,0.19747474789619446,-0.17069493234157562
1761141507331265300,0.747265380859375,0.46459126472473145,0.18686923384666443,-0.14767855405807495
1761141507341325300,0.7573251953125,0.4727691113948822,0.1659921109676361,-0.13738495111465454
1761141507351385000,0.767385009765625,0.48160043358802795,0.14764799177646637,-0.138937845826149
1761141507361445000,0.777445068359375,0.4870273768901825,0.10725318640470505,-0.13773661851882935
1761141507371504400,0.78750439453125,0.4997996389865875,0.06635129451751709,-0.12840570509433746
1761141507381564200,0.797564208984375,0.4945211708545685,0.03313136473298073,-0.16545212268829346
1761141507391624200,0.807624267578125,0.4822160303592682,-0.013691533356904984,-0.21281351149082184
1761141507401684200,0.817684326171875,0.4549466371536255,-0.07495145499706268,-0.25627878308296204
1761141507411744000,0.827743896484375,0.4357399046421051,-0.1357298493385315,-0.27776944637298584
1761141507421804300,0.83780419921875,0.413212388753891,-0.17684468626976013,-0.2770095467567444
1761141507431863300,0.84786328125,0.3917025625705719,-0.1967611461877823,-0.2633078396320343
1761141507441923000,0.857923095703125,0.369329571723938,-0.19098947942256927,-0.24807320535182953
1761141507451983000,0.867983154296875,0.35594797134399414,-0.17205919325351715,-0.22710667550563812
1761141507462043100,0.878043212890625,0.3379346430301666,-0.1440049409866333,-0.20367012917995453
1761141507472103000,0.88810302734375,0.32287099957466125,-0.12777750194072723,-0.18880462646484375
1761141507482163000,0.898162841796875,0.30312255024909973,-0.11668139696121216,-0.1821039468050003
1761141507492222000,0.908221923828125,0.27977994084358215,-0.10476268827915192,-0.18310795724391937
1761141507502282000,0.918281982421875,0.26360127329826355,-0.11093378067016602,-0.19291538000106812
1761141507512342000,0.928342041015625,0.24712854623794556,-0.11244353652000427,-0.20393528044223785
1761141507522402000,0.938402099609375,0.2253868281841278,-0.09792988002300262,-0.21267250180244446
1761141507532461800,0.9484619140625,0.20459020137786865,-0.07441496849060059,-0.2259422391653061
1761141507542521900,0.95852197265625,0.1936522126197815,-0.04525855928659439,-0.2274288386106491
1761141507552581000,0.9685810546875,0.17870068550109863,0.006959372200071812,-0.21889740228652954
1761141507562641000,0.978640869140625,0.16976748406887054,0.05620218440890312,-0.1934204250574112
1761141507572701000,0.988700927734375,0.17063353955745697,0.11335628479719162,-0.15207405388355255
1761141507582761000,0.998760986328125,0.17507809400558472,0.16942834854125977,-0.12623658776283264
1761141507592821000,1.008821044921875,0.17986059188842773,0.2009921371936798,-0.1263790726661682
1761141507602881000,1.018881103515625,0.18520863354206085,0.21827879548072815,-0.12324496358633041
1761141507612940000,1.02893994140625,0.19951674342155457,0.24565474689006805,-0.11000372469425201
1761141507622999800,1.038999755859375,0.21595701575279236,0.22689354419708252,-0.09555839002132416
1761141507633060000,1.04906005859375,0.22556810081005096,0.19865071773529053,-0.06330378353595734
1761141507643120000,1.0591201171875,0.2292230874300003,0.1728217452764511,-0.0204025749117136
1761141507653180000,1.069179931640625,0.23473608493804932,0.13534867763519287,0.02238696627318859
1761141507663240000,1.079239990234375,0.23650623857975006,0.10844440013170242,0.049902934581041336
1761141507673299200,1.08929931640625,0.24842654168605804,0.06556324660778046,0.0654992088675499
1761141507683359000,1.09935888671875,0.2501232326030731,0.013724305666983128,0.07388080656528473
1761141507693419000,1.1094189453125,0.2524931728839874,-0.03312362730503082,0.07809952646493912
1761141507703479000,1.11947900390625,0.253370463848114,-0.08223369717597961,0.06524159759283066
1761141507713538800,1.129538818359375,0.25178268551826477,-0.13035276532173157,0.05200541764497757
1761141507723598800,1.139598876953125,0.24859188497066498,-0.15809643268585205,0.031825341284275055
1761141507733658000,1.149658203125,0.24864594638347626,-0.17875243723392487,0.01458829827606678
1761141507743718000,1.1597177734375,0.2415071278810501,-0.20801876485347748,0.007945653982460499
1761141507753778000,1.16977783203125,0.24101097881793976,-0.2197830080986023,0.01327943243086338
1761141507763838000,1.179837890625,0.23630066215991974,-0.22177135944366455,0.029053740203380585
1761141507773898000,1.18989794921875,0.24012868106365204,-0.21719525754451752,0.05056222900748253
1761141507783958000,1.1999580078125,0.244231715798378,-0.19687573611736298,0.06777849048376083
1761141507794017000,1.21001708984375,0.24673882126808167,-0.17392727732658386,0.07011061906814575
1761141507804076800,1.220076904296875,0.2519700825214386,-0.15713180601596832,0.05499548092484474
1761141507814137000,1.23013720703125,0.2520550489425659,-0.1390760987997055,0.033421214669942856
1761141507824197000,1.240197021484375,0.24012883007526398,-0.11110008507966995,0.0126721803098917
1761141507834257000,1.2502568359375,0.22428648173809052,-0.08592575788497925,-0.006707643158733845
1761141507844317000,1.26031689453125,0.21227245032787323,-0.04599035158753395,-0.016379285603761673
1761141507854376200,1.270376220703125,0.1935243308544159,0.0010474654845893383,-0.00874666403979063
1761141507864436000,1.28043603515625,0.18105606734752655,0.05389458313584328,0.015040231868624687
1761141507874496000,1.29049609375,0.16418467462062836,0.09892038255929947,0.050898630172014236
1761141507884556000,1.30055615234375,0.15264436602592468,0.12865805625915527,0.07335633039474487
1761141507894615800,1.31061572265625,0.14683201909065247,0.15002353489398956,0.08500632643699646
1761141507904675800,1.32067578125,0.13824830949306488,0.15533901751041412,0.08486336469650269
1761141507914734800,1.33073486328125,0.1372823864221573,0.16761592030525208,0.07769040763378143
1761141507924795000,1.340794921875,0.14140547811985016,0.18474246561527252,0.06645862758159637
1761141507934855000,1.35085498046875,0.1393367350101471,0.1921337991952896,0.05932242423295975
1761141507944915000,1.3609150390625,0.1417498141527176,0.20056748390197754,0.06272485852241516
1761141507954975000,1.37097509765625,0.14815205335617065,0.21043236553668976,0.060397516936063766
1761141507965034000,1.381033935546875,0.15140801668167114,0.2100774049758911,0.062035199254751205
1761141507975093800,1.39109375,0.15042264759540558,0.20355266332626343,0.06480862200260162
1761141507985153800,1.40115380859375,0.14820027351379395,0.1917814463376999,0.06272397190332413
1761141507995214000,1.411214111328125,0.15136943757534027,0.1700122356414795,0.035871587693691254
1761141508005274000,1.421274169921875,0.15533219277858734,0.14793866872787476,0.00536608649417758
1761141508015334000,1.431333984375,0.15958338975906372,0.12320350110530853,-0.03854464739561081
1761141508025393000,1.441392822265625,0.1639479696750641,0.09995363652706146,-0.08445538580417633
1761141508035453000,1.451452880859375,0.16920159757137299,0.07569357752799988,-0.12325045466423035
1761141508045513000,1.461512939453125,0.17120856046676636,0.07213156670331955,-0.15359808504581451
1761141508055573000,1.471572998046875,0.1723681092262268,0.07102582603693008,-0.1632602959871292
1761141508065633000,1.481633056640625,0.18431846797466278,0.0478731244802475,-0.16365917026996613
1761141508075692800,1.49169287109375,0.16702869534492493,-0.0038888745475560427,-0.17485776543617249
1761141508085752000,1.501751953125,0.15836361050605774,-0.015091774985194206,-0.17761458456516266
1761141508095811800,1.511811767578125,0.18816837668418884,0.02994494140148163,-0.1651051938533783
1761141508105872000,1.521871826171875,0.22154119610786438,0.004170941188931465,-0.16155730187892914
1761141508115932000,1.531931884765625,0.2439194768667221,0.009163569658994675,-0.16066832840442657
1761141508125992000,1.541991943359375,0.25014156103134155,0.01643173024058342,-0.16009603440761566
1761141508136052000,1.552052001953125,0.256084144115448,0.017121221870183945,-0.16570279002189636
1761141508146111000,1.562111083984375,0.2694089412689209,0.01522698812186718,-0.17165757715702057
1761141508156170800,1.572170654296875,0.28505977988243103,0.005545066203922033,-0.17214494943618774
1761141508166231000,1.58223095703125,0.2978229224681854,-0.005165273789316416,-0.17622986435890198
1761141508176291000,1.592291015625,0.3180575966835022,-0.011968052014708519,-0.16875596344470978
1761141508186351000,1.60235107421875,0.3341768682003021,-0.014900173991918564,-0.14951378107070923
1761141508196409900,1.612409912109375,0.35521718859672546,-0.007717096246778965,-0.1306908130645752
1761141508206470000,1.622469970703125,0.3759208619594574,0.009309828281402588,-0.12016171216964722
1761141508216530000,1.632530029296875,0.39438241720199585,0.02857966162264347,-0.11350753903388977
1761141508226590000,1.64258984375,0.4057777523994446,0.05518288165330887,-0.11584936827421188
1761141508236650000,1.65264990234375,0.4164298474788666,0.07422181218862534,-0.11999192088842392
1761141508246710000,1.6627099609375,0.42757976055145264,0.07481589913368225,-0.12803815305233002
1761141508256769000,1.67276904296875,0.4299294948577881,0.06860379874706268,-0.14451539516448975
1761141508266829000,1.6828291015625,0.42094942927360535,0.059486083686351776,-0.17208757996559143
1761141508276888800,1.692888916015625,0.40441784262657166,0.02786051481962204,-0.22032861411571503
1761141508286948900,1.702948974609375,0.3808757960796356,-0.006554207298904657,-0.2640136182308197
1761141508297009000,1.7130087890625,0.34780654311180115,-0.041423775255680084,-0.2893325388431549
1761141508307069200,1.723069091796875,0.31760984659194946,-0.05976719409227371,-0.29795894026756287
1761141508317128000,1.7331279296875,0.29454368352890015,-0.05819885805249214,-0.28024786710739136
1761141508327188000,1.74318798828125,0.2677114009857178,-0.04790561646223068,-0.24702946841716766
1761141508337247700,1.753247802734375,0.24516215920448303,-0.02658727765083313,-0.21662895381450653
1761141508347308000,1.76330810546875,0.21940486133098602,-0.01194415707141161,-0.19564060866832733
1761141508357368000,1.7733681640625,0.19529366493225098,0.01067939680069685,-0.18950894474983215
1761141508367426800,1.7834267578125,0.1761302500963211,0.028372764587402344,-0.19437909126281738
1761141508377486800,1.79348681640625,0.1585555076599121,0.03183726966381073,-0.20063459873199463
1761141508387547100,1.803547119140625,0.1425895243883133,0.016325199976563454,-0.2008943408727646
1761141508397607000,1.81360693359375,0.1268843412399292,0.00019523175433278084,-0.2038872092962265
1761141508407667000,1.8236669921875,0.11228365451097488,-0.01581871695816517,-0.204490527510643
1761141508417727000,1.83372705078125,0.09277280420064926,-0.033422213047742844,-0.20678217709064484
1761141508427786000,1.843785888671875,0.07201740145683289,-0.05404379218816757,-0.21799403429031372
1761141508437846000,1.853845947265625,0.0589817576110363,-0.06691884249448776,-0.23078680038452148
1761141508447906000,1.863906005859375,0.04528432339429855,-0.07963064312934875,-0.23605932295322418
1761141508457965800,1.8739658203125,0.029758892953395844,-0.0783294215798378,-0.24579530954360962
1761141508468026600,1.884026611328125,0.011481259018182755,-0.06082037091255188,-0.25724223256111145
1761141508478085600,1.894085693359375,-0.005711043253540993,-0.04765956476330757,-0.25841376185417175
1761141508488145700,1.904145751953125,-0.024354172870516777,-0.037941500544548035,-0.2596687078475952
1761141508498205700,1.914205810546875,-0.04283225163817406,-0.029287021607160568,-0.26806697249412537
1761141508508265700,1.924265625,-0.06499262899160385,-0.026567185297608376,-0.2644042372703552
1761141508518325500,1.934325439453125,-0.08395034074783325,-0.018816586583852768,-0.25864383578300476
1761141508528385500,1.944385498046875,-0.10009795427322388,-0.019269516691565514,-0.24672216176986694
1761141508538444500,1.954444580078125,-0.1130792647600174,-0.03328093886375427,-0.23013199865818024
1761141508548504600,1.964504638671875,-0.12390037626028061,-0.04237469658255577,-0.22561685740947723
1761141508558564600,1.974564697265625,-0.13345393538475037,-0.04054750129580498,-0.23935343325138092
1761141508568624600,1.984624755859375,-0.1345655769109726,-0.03301070258021355,-0.27403876185417175
1761141508578684700,1.9946845703125,-0.13190054893493652,-0.01853429153561592,-0.32249709963798523
1761141508588744700,2.00474462890625,-0.11788187175989151,0.018796496093273163,-0.36117181181907654
1761141508598803500,2.014803466796875,-0.10349387675523758,0.06341509521007538,-0.37270039319992065
1761141508608863500,2.024863525390625,-0.10239909589290619,0.08301308006048203,-0.3512449860572815
1761141508618923800,2.034923828125,-0.10790891200304031,0.09130962193012238,-0.3033938407897949
1761141508628983800,2.04498388671875,-0.10684999078512192,0.10088018327951431,-0.24606972932815552
1761141508639043600,2.055043701171875,-0.12250511348247528,0.07920391857624054,-0.1973021924495697
1761141508649102600,2.0651025390625,-0.12908083200454712,0.09871380031108856,-0.1624508798122406
1761141508659162600,2.07516259765625,-0.12660861015319824,0.10719276964664459,-0.16237232089042664
1761141508669222700,2.08522265625,-0.12098883837461472,0.10504601895809174,-0.20366641879081726
1761141508679282700,2.09528271484375,-0.11779677122831345,0.09650419652462006,-0.2550872564315796
1761141508689342700,2.1053427734375,-0.12066518515348434,0.0590832494199276,-0.2968693673610687
1761141508699401700,2.115401611328125,-0.11763104796409607,0.003949686884880066,-0.3366282284259796
1761141508709461800,2.125461669921875,-0.1012231856584549,-0.040525488555431366,-0.38448432087898254
1761141508719521500,2.135521484375,-0.07986756414175034,-0.07248767465353012,-0.4256592094898224
1761141508729581600,2.14558154296875,-0.055731311440467834,-0.0939682349562645,-0.43915224075317383
1761141508739641600,2.1556416015625,-0.034676894545555115,-0.09735497832298279,-0.42544734477996826
1761141508749701600,2.16570166015625,-0.01719324104487896,-0.09164781868457794,-0.4095804989337921
1761141508759760600,2.1757607421875,0.004379428457468748,-0.08666931092739105,-0.3862757086753845
1761141508769820700,2.185820556640625,0.02647515758872032,-0.06523754447698593,-0.36861321330070496
1761141508779880400,2.19588037109375,0.06094444915652275,-0.036919888108968735,-0.3554454743862152
1761141508789940500,2.2059404296875,0.09092611074447632,-0.015225553885102272,-0.34059134125709534
1761141508800000800,2.216000732421875,0.11258213967084885,0.01433340273797512,-0.32219022512435913
1761141508810059500,2.2260595703125,0.1486552208662033,0.039028871804475784,-0.2933429479598999
1761141508820119600,2.23611962890625,0.16950032114982605,0.09793320298194885,-0.29590997099876404
1761141508830179600,2.2461796875,0.18789203464984894,0.14860974252223969,-0.31933894753456116
1761141508840239600,2.256239501953125,0.20285527408123016,0.16278548538684845,-0.3553214371204376
1761141508850299600,2.266299560546875,0.20530487596988678,0.1866692155599594,-0.3784177899360657
1761141508860359700,2.276359619140625,0.18740656971931458,0.1818302571773529,-0.39260074496269226
1761141508870418400,2.28641845703125,0.16233669221401215,0.16490820050239563,-0.3961394429206848
1761141508880478700,2.296478759765625,0.16380542516708374,0.09142015129327774,-0.37367063760757446
1761141508890538800,2.306538818359375,0.12641052901744843,0.017320210114121437,-0.3471458852291107
1761141508900598500,2.3165986328125,0.10817532986402512,-0.04486220329999924,-0.3048117160797119
1761141508910658600,2.326658447265625,0.11046212166547775,-0.09841806441545486,-0.22150258719921112
1761141508920717800,2.3367177734375,0.12125857919454575,-0.10820704698562622,-0.11769256740808487
1761141508930777600,2.346777587890625,0.13222481310367584,-0.08620092272758484,0.0026041176170110703
1761141508940837600,2.356837646484375,0.16305436193943024,-0.08338543027639389,0.09031426161527634
1761141508950897700,2.366897705078125,0.24732241034507751,-0.08744065463542938,0.13667821884155273
1761141508960957400,2.37695751953125,0.327201783657074,-0.0922098383307457,0.15915636718273163
1761141508971016700,2.3870166015625,0.3752644658088684,-0.11028612405061722,0.21687395870685577
1761141508981076700,2.39707666015625,0.40316933393478394,-0.10770072788000107,0.3138750493526459
1761141508991136500,2.407136474609375,0.4091273844242096,-0.06422274559736252,0.4499623477458954
1761141509001196500,2.417196533203125,0.39302003383636475,0.007723878137767315,0.5610825419425964
1761141509011256600,2.427256591796875,0.3536781370639801,0.10186003148555756,0.5842658281326294
1761141509021316600,2.437316650390625,0.30672982335090637,0.17861713469028473,0.4816742241382599
1761141509031375600,2.447375732421875,0.2793385982513428,0.16478152573108673,0.34832727909088135
1761141509041435600,2.457435546875,0.28110188245773315,0.035240575671195984,0.2646789848804474
1761141509051495700,2.46749560546875,0.30695268511772156,-0.11040562391281128,0.20622903108596802
1761141509061555700,2.4775556640625,0.3575085401535034,-0.3150700628757477,0.16205652058124542
1761141509071615700,2.48761572265625,0.436666876077652,-0.4751109778881073,0.18513749539852142
1761141509081674500,2.497674560546875,0.5380643010139465,-0.5263997316360474,0.2862103283405304
1761141509091734500,2.507734619140625,0.6721669435501099,-0.39449411630630493,0.4554227292537689
1761141509101794800,2.517794921875,0.7666196823120117,-0.12125565111637115,0.6784419417381287
1761141509111854600,2.5278544921875,0.7382442951202393,0.12008126080036163,0.9417433142662048
1761141509121914600,2.53791455078125,0.6605209708213806,0.2836691439151764,1.1260958909988403
1761141509131973600,2.5479736328125,0.5487064123153687,0.29898807406425476,1.121410608291626
1761141509142033700,2.55803369140625,0.31551310420036316,0.08816346526145935,0.8512038588523865
1761141509152093700,2.56809375,0.012864085845649242,-0.5080896019935608,0.4654901921749115
1761141509162153700,2.57815380859375,-0.290042519569397,-1.1293249130249023,0.05404137074947357
1761141509172213500,2.588213623046875,-0.506813108921051,-1.7768148183822632,-0.14873768389225006
1761141509182273500,2.5982734375,-0.7153199911117554,-2.245020866394043,-0.15791253745555878
1761141509192332800,2.608332763671875,-0.8995642066001892,-2.4976279735565186,-0.042441897094249725
1761141509202392600,2.618392578125,-0.8969926238059998,-2.926923990249634,0.32403624057769775
1761141509212452600,2.62845263671875,-0.6494075655937195,-2.8890187740325928,0.6261441111564636
1761141509222512600,2.6385126953125,-0.4574623703956604,-2.346345901489258,0.18525806069374084
1761141509232572700,2.64857275390625,-0.43879491090774536,-2.0324363708496094,-0.831669807434082
1761141509242631700,2.658631591796875,-0.4746948480606079,-2.275383710861206,-2.0423688888549805
1761141509252691500,2.66869140625,-0.3772548735141754,-2.656494140625,-3.116204023361206
1761141509262751500,2.67875146484375,-0.09846239537000656,-2.8266706466674805,-3.6120107173919678
1761141509272811800,2.688811767578125,0.10594373196363449,-2.8284928798675537,-3.2021968364715576
1761141509282871800,2.698871826171875,0.18185660243034363,-2.6156675815582275,-1.8296442031860352
1761141509292930600,2.7089306640625,0.3016852140426636,-2.2244937419891357,0.17475447058677673
1761141509302990600,2.718990478515625,0.4678528904914856,-1.610101342201233,2.1978020668029785
1761141509313050600,2.729050537109375,0.5744038224220276,-0.8677195906639099,3.573615789413452
1761141509323110700,2.739110595703125,0.5094280242919922,-0.23095223307609558,4.241952896118164
1761141509333170700,2.749170654296875,0.23126009106636047,0.28711166977882385,4.3374762535095215
1761141509343229400,2.7592294921875,-0.14781665802001953,0.6592130064964294,3.932640790939331
1761141509353289700,2.769289794921875,-0.5568041205406189,0.9072654247283936,3.1645348072052
1761141509363349800,2.779349853515625,-0.9810246229171753,1.0312488079071045,2.2055463790893555
1761141509373409500,2.789409423828125,-1.2474349737167358,1.2665313482284546,1.2698242664337158
1761141509383469600,2.799469482421875,-1.3132387399673462,1.4044841527938843,0.37404924631118774
1761141509393529600,2.809529541015625,-1.23101806640625,1.7711528539657593,-0.3159199357032776
1761141509403588600,2.819588623046875,-1.0547981262207031,2.216949224472046,-0.6558612585067749
1761141509413648600,2.829648681640625,-0.772274374961853,2.661106586456299,-0.5988166332244873
1761141509423708700,2.839708740234375,-0.5229092836380005,3.090625524520874,-0.24440370500087738
1761141509433768400,2.8497685546875,-0.3889576494693756,3.4770941734313965,0.18033495545387268
1761141509443828500,2.859828369140625,-0.3274279832839966,3.579658269882202,0.469317764043808
1761141509453887700,2.8698876953125,-0.32707610726356506,3.256652355194092,0.5072278380393982
1761141509463946800,2.87994677734375,-0.3295733332633972,2.6852312088012695,0.3526287078857422
1761141509474006500,2.890006591796875,-0.30011552572250366,2.145231008529663,0.16377222537994385
1761141509484066800,2.90006689453125,-0.26343315839767456,1.8871434926986694,-0.09639304131269455
1761141509494126800,2.910126953125,-0.2500629723072052,1.6213618516921997,-0.3368337154388428
1761141509504185600,2.920185546875,-0.25685006380081177,1.4189927577972412,-0.47064638137817383
1761141509514245600,2.93024560546875,-0.28164154291152954,1.3419479131698608,-0.48016563057899475
1761141509524306000,2.940305908203125,-0.3383578062057495,1.3826911449432373,-0.41082385182380676
1761141509534365700,2.95036572265625,-0.4529394805431366,1.402193307876587,-0.24119336903095245
1761141509544425700,2.96042578125,-0.4025295674800873,1.4530152082443237,-0.02244930900633335
1761141509554484500,2.970484375,-0.30094900727272034,1.39896821975708,0.16086605191230774
1761141509564544800,2.980544677734375,-0.2308865636587143,1.2638468742370605,0.3153861165046692
1761141509574604800,2.990604736328125,-0.2401755154132843,1.083224892616272,0.40219101309776306
1761141509584664800,3.000664794921875,-0.31043025851249695,0.9301627278327942,0.3811730742454529
1761141509594724600,3.010724609375,-0.4036392271518707,0.8320438265800476,0.26417621970176697
1761141509604783900,3.020783935546875,-0.5112378597259521,0.7643678188323975,0.09657281637191772
1761141509614843600,3.03084375,-0.5950744152069092,0.6756829619407654,-0.09503547102212906
1761141509624903700,3.040903564453125,-0.6533518433570862,0.5420066118240356,-0.2659134864807129
1761141509634963700,3.050963623046875,-0.6863881349563599,0.43564292788505554,-0.39398160576820374
1761141509645023700,3.061023681640625,-0.6911980509757996,0.28910088539123535,-0.4458860754966736
1761141509655082800,3.071082763671875,-0.6555813550949097,0.0901154950261116,-0.4035485088825226
1761141509665142800,3.081142822265625,-0.6343207955360413,-0.21962718665599823,-0.29742181301116943
1761141509675202600,3.09120263671875,-0.5940836071968079,-0.6106128692626953,-0.2125750482082367
1761141509685262600,3.1012626953125,-0.5945014357566833,-1.2492049932479858,-0.13408531248569489
1761141509695322600,3.111322509765625,-0.7177797555923462,-1.8943217992782593,-0.12897881865501404
1761141509705381600,3.121381591796875,-0.8359988331794739,-2.232405424118042,-0.35351553559303284
1761141509715441700,3.131441650390625,-0.6884253621101379,-2.375948905944824,-0.8264510631561279
1761141509725501700,3.141501708984375,-0.39969444274902344,-2.596578598022461,-1.228968620300293
1761141509735561700,3.151561767578125,-0.20149165391921997,-2.7531821727752686,-1.4121119976043701
1761141509745621800,3.161621826171875,-0.050421442836523056,-2.6048014163970947,-1.5472301244735718
1761141509755681800,3.171681884765625,0.13654814660549164,-2.1469435691833496,-1.6675790548324585
1761141509765740500,3.181740478515625,0.37281739711761475,-1.9064536094665527,-1.7109978199005127
1761141509775800800,3.19180078125,0.6298035383224487,-1.6491568088531494,-2.0989696979522705
1761141509785860900,3.20186083984375,0.7422400712966919,-1.4595261812210083,-2.565717935562134
1761141509795920600,3.211920654296875,0.7009544372558594,-1.3767353296279907,-3.2066235542297363
1761141509805980700,3.221980712890625,0.7068250775337219,-1.3900213241577148,-3.5626168251037598
1761141509816039700,3.232039794921875,0.7381203770637512,-1.4471266269683838,-3.258331537246704
1761141509826099700,3.242099609375,0.7290778756141663,-1.2779682874679565,-2.344519853591919
1761141509836159700,3.25215966796875,0.6313195824623108,-0.7737409472465515,-1.0365978479385376
1761141509846219800,3.2622197265625,0.5235307812690735,-0.19064104557037354,0.30896031856536865
1761141509856279600,3.272279541015625,0.20933014154434204,0.3429798483848572,1.228727102279663
1761141509866338800,3.2823388671875,-0.08454941213130951,0.7613789439201355,1.6416339874267578
1761141509876398800,3.29239892578125,-0.3390195369720459,1.0408191680908203,1.6018297672271729
1761141509886458600,3.302458740234375,-0.49441418051719666,1.211417317390442,1.229344367980957
1761141509896518700,3.3125185546875,-0.48829948902130127,1.335101842880249,0.7079676985740662
1761141509906578700,3.32257861328125,-0.34089139103889465,1.5120595693588257,0.15787473320960999
1761141509916637700,3.3326376953125,-0.09589593857526779,1.7361738681793213,-0.27375245094299316
1761141509926697700,3.34269775390625,0.15981173515319824,2.0178184509277344,-0.5626274347305298
1761141509936757800,3.3527578125,0.4028368592262268,2.2921457290649414,-0.6086796522140503
1761141509946817500,3.362817626953125,0.5969567894935608,2.566685438156128,-0.43533504009246826
1761141509956877800,3.3728779296875,0.7243999242782593,2.769028663635254,-0.11151900142431259
1761141509966936800,3.382936767578125,0.8476802706718445,2.8070080280303955,0.3525914251804352
1761141509976996600,3.39299658203125,0.9160972237586975,2.661846160888672,0.8792157173156738
1761141509987056600,3.403056640625,0.8745511174201965,2.354706287384033,1.308931589126587
1761141509997117000,3.413116943359375,0.7509235143661499,2.055530309677124,1.5849374532699585
1761141510007176700,3.4231767578125,0.5583436489105225,1.6049188375473022,1.6731243133544922
1761141510017235700,3.433235595703125,0.38427573442459106,1.1334139108657837,1.5869730710983276
1761141510027295700,3.443295654296875,0.2816984951496124,0.7585806846618652,1.3839653730392456
1761141510037355800,3.453355712890625,0.22015263140201569,0.4570438861846924,1.135182499885559
1761141510047415800,3.463415771484375,0.1559789776802063,0.19996361434459686,0.9034590125083923
1761141510057475800,3.473475830078125,0.1012183427810669,-0.02074884995818138,0.7318363785743713
1761141510067534600,3.48353466796875,0.06731683760881424,-0.2292884737253189,0.6210302114486694
1761141510077595000,3.493594970703125,0.04997435212135315,-0.45060595870018005,0.5477074384689331
1761141510087654700,3.503654541015625,0.05101165547966957,-0.6774548292160034,0.5011095404624939
1761141510097714700,3.513714599609375,0.06229201704263687,-0.8689270615577698,0.4782543182373047
1761141510107774700,3.523774658203125,0.05440320074558258,-1.0249828100204468,0.48333218693733215
1761141510117833700,3.533833740234375,0.006392212584614754,-1.1337556838989258,0.5021031498908997
1761141510127893800,3.543893798828125,-0.06345531344413757,-1.1851719617843628,0.5345582962036133
1761141510137953800,3.553953857421875,-0.12113894522190094,-1.2095612287521362,0.5461369752883911
1761141510148013600,3.564013671875,-0.14426131546497345,-1.2559659481048584,0.5400210618972778
1761141510158073600,3.574073486328125,-0.12967145442962646,-1.3555245399475098,0.48376166820526123
1761141510168132900,3.5841328125,-0.11643049120903015,-1.5119670629501343,0.3896636664867401
1761141510178192600,3.594192626953125,-0.14241789281368256,-1.7112019062042236,0.2298462688922882
1761141510188252700,3.604252685546875,-0.16940955817699432,-1.8225433826446533,-0.03598275035619736
1761141510198312700,3.614312744140625,-0.20832747220993042,-1.9024990797042847,-0.40265020728111267
1761141510208372500,3.62437255859375,-0.3060772120952606,-1.9288761615753174,-0.7554490566253662
1761141510218431700,3.634431640625,-0.40410012006759644,-1.808872938156128,-0.971000075340271
1761141510228491800,3.64449169921875,-0.4918520748615265,-1.5271393060684204,-0.9352692365646362
1761141510238551600,3.654551513671875,-0.5351343750953674,-0.8446148037910461,-0.6944383978843689
1761141510248611600,3.664611572265625,-0.30389904975891113,-0.19452142715454102,-0.5166247487068176
1761141510258671900,3.674671875,0.2141961306333542,0.6954866647720337,-0.8161540627479553
1761141510268730600,3.684730712890625,0.40777385234832764,1.4785606861114502,-1.6813123226165771
1761141510278790700,3.694790771484375,0.2771335542201996,1.4934778213500977,-2.4046270847320557
1761141510288850700,3.7048505859375,0.26912304759025574,0.9011383652687073,-2.485487937927246
1761141510298910700,3.71491064453125,0.44552430510520935,0.24932421743869781,-2.072660207748413
1761141510308970800,3.724970703125,0.6592144966125488,-0.23460064828395844,-1.5401397943496704
1761141510319029800,3.73502978515625,0.8196940422058105,-0.5641568303108215,-1.0399795770645142
1761141510329089500,3.745089599609375,0.8767186999320984,-0.6877421736717224,-0.5657568573951721
1761141510339149800,3.75514990234375,0.7919314503669739,-0.6796475648880005,-0.18420644104480743
1761141510349209900,3.7652099609375,0.613335907459259,-0.5976107716560364,0.11566496640443802
1761141510359269600,3.77526953125,0.41411352157592773,-0.4621780216693878,0.36835789680480957
1761141510369328600,3.78532861328125,0.22877293825149536,-0.30767500400543213,0.629152774810791
1761141510379389000,3.795388916015625,0.05964989215135574,-0.13824701309204102,0.8951870799064636
1761141510389448700,3.80544873046875,-0.05405803024768829,0.023638568818569183,1.1591497659683228
1761141510399508700,3.8155087890625,-0.11756236851215363,0.14732955396175385,1.4022367000579834
1761141510409568800,3.82556884765625,-0.15852311253547668,0.2149951457977295,1.5951484441757202
1761141510419628500,3.835628662109375,-0.19794796407222748,0.2292129099369049,1.717229962348938
1761141510429687800,3.845687744140625,-0.222918301820755,0.2370402067899704,1.7405768632888794
1761141510439747800,3.855747802734375,-0.24146276712417603,0.2338455468416214,1.6773178577423096
1761141510449807600,3.8658076171875,-0.24844983220100403,0.23356351256370544,1.5492373704910278
1761141510459867600,3.87586767578125,-0.25594308972358704,0.3105274736881256,1.386194109916687
1761141510469927700,3.885927734375,-0.27111780643463135,0.40969160199165344,1.246032476425171
1761141510479987000,3.895987060546875,-0.3067556321620941,0.48804813623428345,1.1595776081085205
1761141510490046700,3.906046630859375,-0.3399181067943573,0.6074315309524536,1.1502735614776611
1761141510500106800,3.916106689453125,-0.3923548758029938,0.6556975245475769,1.2287033796310425
1761141510510166800,3.926166748046875,-0.4314279556274414,0.5803271532058716,1.3449105024337769
1761141510520225800,3.936225830078125,-0.4587245285511017,0.4571194052696228,1.4770963191986084
1761141510530285800,3.946285888671875,-0.412780225276947,0.3824784755706787,1.5249991416931152
1761141510540345900,3.956345947265625,-0.30881980061531067,0.2842017412185669,1.3282191753387451
1761141510550405600,3.966405517578125,-0.20302064716815948,0.1973763257265091,0.624160885810852
1761141510560466000,3.9764658203125,-0.15107370913028717,0.4639386534690857,-0.8120399713516235
1761141510570526000,3.98652587890625,-0.22576339542865753,0.7414882183074951,-2.5134241580963135
1761141510580584700,3.996584716796875,-0.4289562404155731,0.4636915624141693,-3.7936723232269287
1761141510590644700,4.006644775390625,-0.6105060577392578,0.05440231412649155,-4.237951278686523
1761141510600705000,4.016705078125,-0.6447530388832092,-0.4870412051677704,-3.7401349544525146
1761141510610764800,4.026764892578125,-0.6008553504943848,-0.6220544576644897,-2.592290163040161
1761141510620823800,4.03682373046875,-0.36506256461143494,-0.4166881740093231,-1.3311920166015625
1761141510630883800,4.0468837890625,0.0986718088388443,0.051085952669382095,-0.1944011151790619
1761141510640943900,4.05694384765625,0.5934100151062012,0.4634281098842621,0.7570798397064209
1761141510651004000,4.06700390625,0.8050596714019775,0.7225350737571716,1.4190229177474976
1761141510661064000,4.07706396484375,0.7641207575798035,0.794233500957489,1.7189558744430542
1761141510671122700,4.087122802734375,0.6195893883705139,0.74530029296875,1.6738094091415405
1761141510681183000,4.097182861328125,0.45949822664260864,0.7058432102203369,1.3643112182617188
1761141510691243000,4.107242919921875,0.324753999710083,0.6184324026107788,0.8716064095497131
1761141510701302800,4.117302734375,0.23277616500854492,0.42640677094459534,0.27639222145080566
1761141510711362800,4.12736279296875,0.16505570709705353,0.13924477994441986,-0.30203890800476074
1761141510721421800,4.137421875,0.1108599454164505,-0.16489791870117188,-0.7844647765159607
1761141510731481900,4.14748193359375,0.08967449516057968,-0.43437251448631287,-1.092655062675476
1761141510741542000,4.1575419921875,0.12520729005336761,-0.6996748447418213,-1.2275302410125732
1761141510751602000,4.167601806640625,0.2167545109987259,-1.004618525505066,-1.2813971042633057
1761141510761661700,4.17766162109375,0.3375818133354187,-1.454502820968628,-1.3916935920715332
1761141510771721000,4.187720947265625,0.47089192271232605,-2.0413358211517334,-1.6126922369003296
1761141510781780700,4.19778076171875,0.5729644298553467,-2.600341558456421,-1.9306628704071045
1761141510791840800,4.2078408203125,0.6274809241294861,-3.0572760105133057,-2.1013693809509277
1761141510801900800,4.21790087890625,0.5760108232498169,-3.2844221591949463,-1.9863502979278564
1761141510811960800,4.2279609375,0.38979804515838623,-3.29825496673584,-1.6184316873550415
1761141510822019800,4.238019775390625,0.19322583079338074,-3.0221781730651855,-1.0584975481033325
1761141510832080000,4.248079833984375,0.05940784141421318,-2.5938403606414795,-0.46791309118270874
1761141510842139600,4.2581396484375,-0.025465289130806923,-2.0991227626800537,0.07769984006881714
1761141510852199700,4.26819970703125,-0.09409788250923157,-1.6709119081497192,0.48144304752349854
1761141510862260000,4.278260009765625,-0.1278952807188034,-1.2940218448638916,0.743868887424469
1761141510872318700,4.288318603515625,-0.11005929857492447,-1.0442931652069092,0.8846909999847412
1761141510882378800,4.298378662109375,-0.040332283824682236,-0.8533180952072144,0.9442050457000732
1761141510892438800,4.308438720703125,0.03927226364612579,-0.5051283836364746,0.9042695760726929
1761141510902498800,4.318498779296875,0.09924633055925369,0.038223881274461746,0.7743671536445618
1761141510912558800,4.328558837890625,0.11807700991630554,0.6415281295776367,0.6193708777427673
1761141510922617900,4.338617919921875,0.09249738603830338,1.1757718324661255,0.5058888792991638
1761141510932677600,4.348677734375,0.04951796680688858,1.5643786191940308,0.5072779655456543
1761141510942738000,4.358738037109375,0.08865666389465332,1.8062663078308105,0.7690216898918152
1761141510952798000,4.3687978515625,0.2781547009944916,1.967250943183899,1.122595191001892
1761141510962857700,4.378857666015625,0.5139293670654297,2.222726345062256,1.340449571609497
1761141510972916700,4.388916748046875,0.6632946133613586,2.0907254219055176,1.3612401485443115
1761141510982977000,4.39897705078125,0.8978406190872192,1.2863119840621948,1.256475567817688
1761141510993036800,4.409036865234375,1.1513886451721191,0.3246334195137024,0.811032235622406
1761141511003096800,4.419096923828125,1.129552960395813,-0.2727895975112915,0.13937103748321533
1761141511013156900,4.429156982421875,0.7901738286018372,-0.4739812910556793,-0.19344393908977509
1761141511023215900,4.4392158203125,0.347686231136322,-0.49913859367370605,-0.02690122090280056
1761141511033276000,4.44927587890625,0.055894311517477036,-0.5295812487602234,0.5537813305854797
1761141511043336000,4.4593359375,-0.10450746864080429,-0.5513825416564941,1.4282180070877075
1761141511053395700,4.469395751953125,-0.16986730694770813,-0.005102941300719976,2.176870107650757
1761141511063455700,4.479455810546875,-0.28954821825027466,0.7223787307739258,2.3569769859313965
1761141511073515000,4.489514892578125,-0.45335471630096436,1.2942291498184204,2.165558099746704
1761141511083574800,4.49957470703125,-0.6619702577590942,1.3398035764694214,2.016042947769165
1761141511093634800,4.509634765625,-0.8367516398429871,0.7006262540817261,1.874139666557312
1761141511103694800,4.51969482421875,-1.0798206329345703,-0.42270800471305847,1.3910752534866333
1761141511113754600,4.529754638671875,-1.5825470685958862,-1.5651992559432983,0.6850883364677429
1761141511123814000,4.53981396484375,-2.320202112197876,-2.5147156715393066,0.03230633959174156
1761141511133874000,4.5498740234375,-2.862565755844116,-2.599146604537964,-0.4229373633861542
1761141511143933700,4.55993359375,-3.0065107345581055,-1.9337615966796875,-0.6501042246818542
1761141511153993700,4.56999365234375,-2.634352207183838,-0.8541179895401001,-0.43488621711730957
1761141511164054000,4.580053955078125,-1.7510427236557007,0.5041897296905518,0.3096190094947815
1761141511174112800,4.59011279296875,-0.7631275653839111,1.8668805360794067,1.4268836975097656
1761141511184172800,4.6001728515625,0.1161719486117363,2.8855435848236084,2.4823334217071533
1761141511194232800,4.61023291015625,0.9083260297775269,3.4827427864074707,3.142033338546753
1761141511204292900,4.62029296875,1.3949354887008667,3.5912179946899414,3.506549835205078
1761141511214352000,4.630351806640625,1.584678292274475,3.195307970046997,3.542056083679199
1761141511224411600,4.64041162109375,1.4823418855667114,2.2700138092041016,3.2324016094207764
1761141511234471700,4.6504716796875,1.3008556365966797,1.115668773651123,2.5644774436950684
1761141511244532000,4.660531982421875,1.1925323009490967,-0.1665383130311966,1.4377549886703491
1761141511254592000,4.670592041015625,1.1657342910766602,-1.142836093902588,0.0360691174864769
1761141511264650800,4.680650634765625,1.1662003993988037,-1.67367422580719,-1.400451421737671
1761141511274710800,4.690710693359375,1.0700278282165527,-1.7810745239257812,-2.473407030105591
1761141511284770800,4.700770751953125,0.8886132836341858,-1.482306718826294,-2.931838035583496
1761141511294830800,4.710830810546875,0.6587545275688171,-0.9345635175704956,-2.7952587604522705
1761141511304891000,4.720890869140625,0.43477267026901245,-0.1576838344335556,-2.169826030731201
1761141511314949600,4.73094970703125,0.1880023181438446,0.5553413033485413,-1.2188429832458496
1761141511325010000,4.741010009765625,-0.06740465015172958,1.0669944286346436,-0.28455275297164917
1761141511335070000,4.751070068359375,-0.2808692753314972,1.3895741701126099,0.36210429668426514
1761141511345129700,4.761129638671875,-0.5044575929641724,1.4982746839523315,0.7650014758110046
1761141511355189800,4.771189697265625,-0.7260626554489136,1.3378196954727173,0.9539003372192383
1761141511365249000,4.7812490234375,-0.8795400857925415,0.9288750886917114,0.9264241456985474
1761141511375308800,4.791308837890625,-0.8823017477989197,0.33204394578933716,0.7428731918334961
1761141511385368800,4.801368896484375,-0.8047411441802979,-0.21513238549232483,0.3914166986942291
1761141511395428900,4.811428955078125,-0.6844829320907593,-0.617067813873291,-0.018041901290416718
1761141511405488600,4.821488525390625,-0.591982901096344,-0.8882057070732117,-0.363925039768219
1761141511415548000,4.8315478515625,-0.47710666060447693,-0.8586646318435669,-0.6148608922958374
1761141511425608000,4.84160791015625,-0.37758418917655945,-0.49369165301322937,-0.7983970046043396
1761141511435667700,4.851667724609375,-0.3272869288921356,-0.060697853565216064,-0.894379734992981
1761141511445727700,4.861727783203125,-0.29430052638053894,0.30612048506736755,-0.8389927744865417
1761141511455787800,4.871787841796875,-0.23113250732421875,0.6311001777648926,-0.649490475654602
1761141511465847600,4.88184765625,-0.16247127950191498,0.8843733072280884,-0.38425305485725403
1761141511475907600,4.891907470703125,-0.11678555607795715,1.1154162883758545,-0.12547607719898224
1761141511485967400,4.90196728515625,-0.11292190849781036,1.3541741371154785,0.0867866724729538
1761141511496027400,4.91202734375,-0.13494464755058289,1.4995390176773071,0.21034003794193268
1761141511506086400,4.92208642578125,-0.14536935091018677,1.5567209720611572,0.2147418111562729
1761141511516146400,4.932146484375,-0.11753000319004059,1.547861099243164,0.09051094204187393
1761141511526206500,4.94220654296875,-0.053121019154787064,1.4584335088729858,-0.13044556975364685
1761141511536266500,4.9522666015625,0.03077547810971737,1.3369020223617554,-0.34894540905952454
1761141511546326300,4.962326171875,0.04766111820936203,1.147679328918457,-0.4773661494255066
1761141511556385500,4.972385498046875,-0.03407582268118858,0.9155278205871582,-0.484211266040802
1761141511566445300,4.9824453125,-0.18462802469730377,0.5813615322113037,-0.4290671944618225
1761141511576505300,4.99250537109375,-0.4086794853210449,0.10518405586481094,-0.39035388827323914
1761141511586565400,5.0025654296875,-0.6955224275588989,-0.4600676894187927,-0.4024369418621063
1761141511596625700,5.012625732421875,-0.9687070846557617,-1.1643542051315308,-0.42207562923431396
1761141511606684400,5.022684326171875,-0.8732017874717712,-1.9853123426437378,-0.4263801574707031
1761141511616744400,5.032744384765625,-0.23921795189380646,-2.435861587524414,-0.6246355175971985
1761141511626804200,5.04280419921875,0.25345566868782043,-2.4649205207824707,-0.6036179065704346
1761141511636864500,5.052864501953125,0.33568984270095825,-1.7490898370742798,-1.1716901063919067
1761141511646924500,5.062924560546875,0.578090250492096,-1.2866727113723755,-2.4756228923797607
1761141511656983300,5.0729833984375,1.075347661972046,-1.2116233110427856,-3.553342342376709
1761141511667043300,5.083043212890625,1.5014137029647827,-1.1981775760650635,-3.891055107116699
1761141511677103600,5.093103515625,1.5511738061904907,-1.1008763313293457,-3.594679594039917
1761141511687163400,5.103163330078125,1.542460322380066,-0.8314844965934753,-2.6096272468566895
1761141511697223400,5.113223388671875,1.2649807929992676,-0.2857537567615509,-1.2241822481155396
1761141511707282400,5.123282470703125,1.0356359481811523,0.08106124401092529,0.18918365240097046
1761141511717342500,5.133342529296875,0.5596862435340881,0.1784525066614151,1.1784025430679321
1761141511727402500,5.143402587890625,-0.1344534456729889,0.1998862326145172,1.6569726467132568
1761141511737462500,5.153462646484375,-0.9197738170623779,0.3811771869659424,1.7562276124954224
1761141511747521300,5.163521240234375,-1.5019484758377075,0.45491892099380493,1.8191683292388916
1761141511757581600,5.17358154296875,-1.8314067125320435,0.6612047553062439,1.9225194454193115
1761141511767641600,5.1836416015625,-1.9832926988601685,0.923313558101654,1.9102253913879395
1761141511777701400,5.193701416015625,-1.9804974794387817,0.8416858315467834,1.8277976512908936
1761141511787761400,5.203761474609375,-1.7769116163253784,0.5874669551849365,1.7466728687286377
1761141511797820700,5.213820556640625,-1.213801383972168,0.4367554783821106,1.7575292587280273
1761141511807880400,5.22388037109375,-0.5035418272018433,0.36452823877334595,1.8543891906738281
1761141511817940500,5.2339404296875,0.10007911175489426,0.3586924374103546,1.8616067171096802
1761141511828000500,5.24400048828125,0.4380582273006439,0.5605616569519043,1.5720875263214111
1761141511838060300,5.254060302734375,0.6064053773880005,0.686326265335083,1.0469435453414917
1761141511848119600,5.26411962890625,0.7601291537284851,0.40469488501548767,0.7690459489822388
1761141511858179600,5.2741796875,0.7225561738014221,0.035694487392902374,0.5623007416725159
1761141511868239400,5.2842392578125,0.5493172407150269,-0.26401039958000183,0.3500122129917145
1761141511878299400,5.29429931640625,0.36748138070106506,-0.45390015840530396,0.12341368198394775
1761141511888358400,5.3043583984375,0.22404327988624573,-0.44680607318878174,-0.08943528681993484
1761141511898418400,5.31441845703125,0.12119760364294052,-0.36527684330940247,-0.22420401871204376
1761141511908478500,5.324478515625,0.02297617495059967,-0.27459725737571716,-0.2517949938774109
1761141511918538500,5.33453857421875,-0.0905676931142807,-0.21076206862926483,-0.20127001404762268
1761141511928598500,5.3445986328125,-0.20907062292099,-0.16965433955192566,-0.16574887931346893
1761141511938657500,5.354657470703125,-0.31739282608032227,-0.16053594648838043,-0.1922079175710678
1761141511948717300,5.36471728515625,-0.3948828876018524,-0.155455082654953,-0.25153031945228577
1761141511958777300,5.37477734375,-0.436008483171463,-0.1497623175382614,-0.38126543164253235
1761141511968837400,5.38483740234375,-0.42312008142471313,-0.21147869527339935,-0.5709468126296997
1761141511978897700,5.394897705078125,-0.39797133207321167,-0.36521393060684204,-0.7791769504547119
1761141511988956400,5.404956298828125,-0.35965195298194885,-0.4623854458332062,-0.9792395234107971
1761141511999016400,5.415016357421875,-0.3229658603668213,-0.7979341745376587,-1.0645133256912231
1761141512009076500,5.425076416015625,-0.329226016998291,-1.0653457641601562,-0.8462521433830261
1761141512019136500,5.435136474609375,-0.31279459595680237,-1.1759755611419678,-0.2950840890407562
1761141512029196500,5.445196533203125,-0.17359057068824768,-1.114976167678833,0.44655632972717285
1761141512039255300,5.45525537109375,0.24777157604694366,-1.041824460029602,1.0741465091705322
1761141512049315300,5.4653154296875,0.5305048227310181,-1.0396524667739868,0.7982034087181091
1761141512059375600,5.475375732421875,0.24264933168888092,-0.6403285264968872,-0.34282153844833374
1761141512069435400,5.485435302734375,0.038356442004442215,-0.18701861798763275,-2.3727924823760986
1761141512079494400,5.495494384765625,0.09196587651968002,-0.15628866851329803,-4.392735958099365
1761141512089554400,5.505554443359375,0.20237241685390472,-0.3113442063331604,-5.137336254119873
1761141512099614500,5.515614501953125,0.3705020546913147,-0.37518975138664246,-4.54423713684082
1761141512109674500,5.525674560546875,0.715561032295227,-0.020336996763944626,-2.948040008544922
1761141512119734500,5.535734619140625,0.9368821978569031,0.5400900840759277,-1.0069314241409302
1761141512129793300,5.545793212890625,0.9962226748466492,0.8552931547164917,0.5590524673461914
1761141512139853600,5.555853515625,0.9591421484947205,0.9400922060012817,1.5927293300628662
1761141512149913600,5.56591357421875,0.7964251637458801,0.8625979423522949,2.1837897300720215
1761141512159973400,5.575973388671875,0.5561688542366028,0.7447826266288757,2.386951208114624
1761141512170033400,5.586033447265625,0.27067023515701294,0.5792802572250366,2.3066794872283936
1761141512180092700,5.5960927734375,0.01149087306112051,0.40224820375442505,2.0578808784484863
1761141512190152400,5.60615234375,-0.20014727115631104,0.23212623596191406,1.7332206964492798
1761141512200212500,5.61621240234375,-0.35896170139312744,0.058765918016433716,1.3942298889160156
1761141512210272500,5.6262724609375,-0.4353380799293518,-0.10859393328428268,1.0895053148269653
1761141512220331500,5.63633154296875,-0.4402359127998352,-0.2522624135017395,0.8487612009048462
1761141512230391600,5.6463916015625,-0.3837469220161438,-0.3802871108055115,0.6865189671516418
1761141512240451600,5.65645166015625,-0.30265098810195923,-0.519214391708374,0.541854739189148
1761141512250511400,5.666511474609375,-0.24927964806556702,-0.6860830187797546,0.4302011728286743
1761141512260571400,5.6765712890625,-0.18408334255218506,-0.847375750541687,0.3892132639884949
1761141512270630400,5.68663037109375,-0.09805410355329514,-0.8557647466659546,0.3395218551158905
1761141512280690400,5.6966904296875,-0.06151740252971649,-0.7437138557434082,0.29639488458633423
1761141512290750500,5.70675048828125,-0.09424237906932831,-0.5398796796798706,0.2882743179798126
1761141512300810500,5.716810546875,-0.17839400470256805,-0.3667217791080475,0.30437710881233215
1761141512310870500,5.72687060546875,-0.26921096444129944,-0.1802440881729126,0.3131504952907562
1761141512320929500,5.736929443359375,-0.34619763493537903,0.004102054983377457,0.2675641179084778
1761141512330989300,5.7469892578125,-0.37497687339782715,0.22633624076843262,0.09855213761329651
1761141512341049300,5.75704931640625,-0.3323175609111786,0.6839905977249146,-0.3156264126300812
1761141512351109600,5.767109619140625,-0.248849555850029,1.3128290176391602,-1.1229841709136963
1761141512361168400,5.77716845703125,-0.2666493356227875,1.8043779134750366,-1.93666410446167
1761141512371228400,5.787228515625,-0.28555038571357727,1.9133305549621582,-2.1735012531280518
1761141512381288400,5.797288330078125,-0.19378876686096191,1.841768503189087,-1.8982104063034058
1761141512391348500,5.807348388671875,-0.004450757522135973,1.8842042684555054,-1.3859326839447021
1761141512401408500,5.817408447265625,0.2315913438796997,1.9854429960250854,-0.7931917905807495
1761141512411467500,5.827467529296875,0.4290698766708374,2.1090879440307617,-0.204616978764534
1761141512421527300,5.83752734375,0.5208263993263245,2.191136121749878,0.3271438479423523
1761141512431587600,5.847587646484375,0.5035600662231445,2.0588018894195557,0.7445685863494873
1761141512441647600,5.857647705078125,0.40213996171951294,1.6144484281539917,1.0382764339447021
1761141512451707400,5.867707275390625,0.2716773450374603,1.120750069618225,1.2385179996490479
1761141512461766400,5.877766357421875,0.17455027997493744,0.596117377281189,1.1177258491516113
1761141512471826400,5.887826416015625,0.08311503380537033,0.20625153183937073,0.7139303088188171
1761141512481886500,5.897886474609375,-0.009676423855125904,-0.052573103457689285,0.17842639982700348
1761141512491946200,5.9079462890625,-0.04819146916270256,-0.355197548866272,-0.21215540170669556
1761141512502005200,5.918005126953125,-0.05870909243822098,-0.5925706624984741,-0.29485639929771423
1761141512512065500,5.9280654296875,-0.07273102551698685,-0.7087759971618652,-0.25181180238723755
1761141512522125300,5.938125244140625,-0.09208128601312637,-0.7036440968513489,-0.24397358298301697
1761141512532185300,5.948185302734375,-0.08851347863674164,-0.6500329971313477,-0.26851585507392883
1761141512542245400,5.958245361328125,-0.08901522308588028,-0.6372370719909668,-0.29174208641052246
1761141512552304400,5.968304443359375,-0.07253776490688324,-0.6832119822502136,-0.30478644371032715
1761141512562364400,5.978364501953125,-0.025747627019882202,-0.7966967225074768,-0.33141008019447327
1761141512572424400,5.988424560546875,0.031498782336711884,-0.9166467189788818,-0.386520117521286
1761141512582484200,5.998484130859375,0.03537314757704735,-1.0659387111663818,-0.48812103271484375
1761141512592544300,6.008544189453125,0.03891105577349663,-1.2729829549789429,-0.5756009221076965
1761141512602603500,6.018603515625,0.06560072302818298,-1.3869531154632568,-0.6349063515663147
1761141512612663300,6.028663330078125,0.09614197909832001,-1.4344322681427002,-0.6620279550552368
1761141512622723300,6.038723388671875,0.1328669786453247,-1.3581258058547974,-0.6455222368240356
1761141512632783400,6.048783447265625,0.14051853120326996,-1.1427803039550781,-0.552154541015625
1761141512642842400,6.05884228515625,0.08036890625953674,-0.8597291111946106,-0.4279364347457886
1761141512652902400,6.06890234375,0.015562928281724453,-0.5724797248840332,-0.25366929173469543
1761141512662962400,6.07896240234375,-0.03684009239077568,-0.2768818736076355,-0.05343366414308548
1761141512673022200,6.089022216796875,-0.09034492820501328,-0.08381115645170212,0.19877731800079346
1761141512683082200,6.099082275390625,-0.1389303058385849,0.028740154579281807,0.45963555574417114
1761141512693141200,6.109141357421875,-0.1655157208442688,0.13912327587604523,0.6935569643974304
1761141512703201300,6.119201171875,-0.18926818668842316,0.24746014177799225,0.8174983859062195
1761141512713261300,6.12926123046875,-0.23947565257549286,0.3404877781867981,0.854499101638794
1761141512723321300,6.1393212890625,-0.3212493360042572,0.4046739339828491,0.7794999480247498
1761141512733380400,6.14938037109375,-0.41045063734054565,0.37361884117126465,0.5076073408126831
1761141512743440400,6.1594404296875,-0.49755650758743286,0.19739456474781036,0.026759522035717964
1761141512753500200,6.169500244140625,-0.5449697971343994,-0.08841380476951599,-0.543323278427124
1761141512763560200,6.179560302734375,-0.5083473324775696,-0.42408525943756104,-1.017340898513794
1761141512773620500,6.189620361328125,-0.4556141793727875,-0.6913977861404419,-1.2873120307922363
1761141512783679200,6.19967919921875,-0.4129120111465454,-0.810701847076416,-1.373654842376709
1761141512793739300,6.2097392578125,-0.34585079550743103,-0.7859758734703064,-1.3126693964004517
1761141512803799300,6.21979931640625,-0.23445263504981995,-0.6298688650131226,-1.0825648307800293
1761141512813859300,6.229859375,-0.12177897244691849,-0.4103504419326782,-0.7081155180931091
1761141512823919400,6.23991943359375,-0.025855638086795807,-0.1799156367778778,-0.30145081877708435
1761141512833978400,6.249978271484375,0.06002558767795563,0.021438902243971825,0.01424610149115324
1761141512844038100,6.2600380859375,0.12741528451442719,0.18296228349208832,0.1964436024427414
1761141512854098400,6.270098388671875,0.1923820972442627,0.3141583502292633,0.280004620552063
1761141512864158500,6.280158447265625,0.24364660680294037,0.41029420495033264,0.3152017593383789
1761141512874217200,6.29021728515625,0.28320246934890747,0.49213430285453796,0.322356641292572
1761141512884277200,6.30027734375,0.32474857568740845,0.5640755891799927,0.2989298701286316
1761141512894337500,6.310337646484375,0.3611350357532501,0.6050699353218079,0.2465912252664566
1761141512904397300,6.320397216796875,0.3944610357284546,0.6094329953193665,0.16617147624492645
1761141512914457300,6.330457275390625,0.441366970539093,0.6128556728363037,0.05974029749631882
1761141512924516400,6.340516357421875,0.49272042512893677,0.6290929913520813,-0.06896468251943588
1761141512934576400,6.350576416015625,0.551425576210022,0.643464207649231,-0.2266422063112259
1761141512944636400,6.360636474609375,0.6196586489677429,0.6383634805679321,-0.4112783670425415
1761141512954696400,6.370696533203125,0.66533362865448,0.6417271494865417,-0.6313320398330688
1761141512964755200,6.380755126953125,0.6900935769081116,0.6909857988357544,-0.8519451022148132
1761141512974815500,6.3908154296875,0.6989147067070007,0.7358430027961731,-1.008320927619934
1761141512984875500,6.40087548828125,0.7012186050415039,0.7942176461219788,-1.124795913696289
1761141512994935300,6.410935302734375,0.7321925163269043,0.8640106916427612,-1.2188608646392822
1761141513004995300,6.420995361328125,0.7674785852432251,0.8793454170227051,-1.2683475017547607
1761141513015054300,6.431054443359375,0.7361892461776733,0.8291366696357727,-1.2388556003570557
1761141513025114400,6.4411142578125,0.6199824810028076,0.696702241897583,-1.147500991821289
1761141513035174400,6.45117431640625,0.43845197558403015,0.4361162483692169,-1.043146014213562
1761141513045234400,6.461234375,0.23109346628189087,0.12953421473503113,-0.9706308245658875
1761141513055293400,6.47129345703125,0.034859515726566315,-0.136825829744339,-0.9384808540344238
1761141513065353500,6.481353515625,-0.14418375492095947,-0.3040291666984558,-0.9283348917961121
1761141513075413200,6.491413330078125,-0.2898339033126831,-0.3986984193325043,-0.841069221496582
1761141513085473300,6.501473388671875,-0.3868168890476227,-0.3835141360759735,-0.6387302279472351
1761141513095533300,6.511533203125,-0.4324822723865509,-0.24628795683383942,-0.38257500529289246
1761141513105592300,6.52159228515625,-0.4475504457950592,-0.021815959364175797,-0.13993199169635773
1761141513115652400,6.53165234375,-0.44574713706970215,0.23149560391902924,0.06617506593465805
1761141513125712400,6.54171240234375,-0.4456928074359894,0.4224013686180115,0.24122704565525055
1761141513135772200,6.551772216796875,-0.4310467839241028,0.5199257731437683,0.3605789542198181
1761141513145831400,6.56183154296875,-0.40439918637275696,0.5500841736793518,0.431684285402298
1761141513155891500,6.571891357421875,-0.3701210916042328,0.5293048620223999,0.49002528190612793
1761141513165951200,6.581951171875,-0.3345194160938263,0.4102163016796112,0.5445201992988586
1761141513176011300,6.59201123046875,-0.2878750264644623,0.22842982411384583,0.5754463076591492
1761141513186071300,6.6020712890625,-0.2344706654548645,0.028027497231960297,0.5488716959953308
1761141513196130300,6.61213037109375,-0.16543635725975037,-0.1405019909143448,0.4775940775871277
1761141513206190300,6.6221904296875,-0.09589269757270813,-0.2754068076610565,0.38941308856010437
1761141513216250400,6.63225048828125,-0.022696947678923607,-0.3717139959335327,0.3036014139652252
1761141513226310100,6.64231005859375,0.04559103026986122,-0.3995829224586487,0.24442064762115479
1761141513236369400,6.652369384765625,0.10503260791301727,-0.3734113276004791,0.22790387272834778
1761141513246429400,6.662429443359375,0.1410215049982071,-0.32373538613319397,0.2516195774078369
1761141513256489200,6.6724892578125,0.1548994481563568,-0.2525383532047272,0.30647674202919006
1761141513266549200,6.68254931640625,0.15619853138923645,-0.18635773658752441,0.3661738932132721
1761141513276609500,6.692609619140625,0.1443629413843155,-0.15976692736148834,0.4014946222305298
1761141513286668300,6.702668212890625,0.10368023067712784,-0.11000576615333557,0.38098615407943726
1761141513296728300,6.712728271484375,0.07660375535488129,-0.09514893591403961,0.3566400408744812
1761141513306788400,6.722788330078125,0.05942210555076599,-0.07532116770744324,0.34287309646606445
1761141513316848400,6.732848388671875,0.043642375618219376,-0.06346293538808823,0.3257712721824646
1761141513326907400,6.742907470703125,0.037981294095516205,-0.04571269825100899,0.30715709924697876
1761141513336967200,6.75296728515625,0.05552012473344803,-0.022404493764042854,0.2851419150829315
1761141513347027200,6.763027099609375,0.08472941070795059,0.04767259582877159,0.24627919495105743
1761141513357087500,6.77308740234375,0.1044253408908844,0.15476948022842407,0.1745048463344574
1761141513367147500,6.7831474609375,0.11969403922557831,0.28082382678985596,0.06705588847398758
1761141513377206300,6.793206298828125,0.14328904449939728,0.3786771893501282,-0.048276931047439575
1761141513387266300,6.803266357421875,0.18606847524642944,0.4330320358276367,-0.14988131821155548
1761141513397326300,6.813326416015625,0.2396751195192337,0.4361869990825653,-0.25370216369628906
1761141513407386400,6.823386474609375,0.3017166554927826,0.40647703409194946,-0.36222225427627563
1761141513417445400,6.8334453125,0.3493863642215729,0.34396734833717346,-0.4784059524536133
1761141513427505200,6.843505126953125,0.3717649281024933,0.23356308043003082,-0.5740044116973877
1761141513437565400,6.8535654296875,0.3791138529777527,0.08541203290224075,-0.6314442157745361
1761141513447625500,6.86362548828125,0.3838824927806854,-0.0773228257894516,-0.6344714164733887
1761141513457685200,6.873685302734375,0.3859250843524933,-0.22647309303283691,-0.584389328956604
1761141513467744000,6.883743896484375,0.3976813554763794,-0.33237287402153015,-0.48695462942123413
1761141513477804000,6.893803955078125,0.4108840525150299,-0.41219672560691833,-0.3740317225456238
1761141513487864000,6.903864013671875,0.42797088623046875,-0.4833561182022095,-0.2657470405101776
1761141513497923800,6.913923828125,0.44273415207862854,-0.5523834228515625,-0.15449872612953186
1761141513507982800,6.92398291015625,0.4446873366832733,-0.6432896256446838,-0.05868696793913841
1761141513518043100,6.934043212890625,0.4296038746833801,-0.7686604857444763,-0.003786220448091626
1761141513528103000,6.94410302734375,0.37080979347229004,-0.9061179161071777,-0.0308748297393322
1761141513538163000,6.954162841796875,0.26626837253570557,-1.1251641511917114,-0.18007110059261322
1761141513548223000,6.964222900390625,0.13733969628810883,-1.408969759941101,-0.4309781789779663
1761141513558282000,6.974281982421875,-0.010931899771094322,-1.6353082656860352,-0.7942814230918884
1761141513568342000,6.984342041015625,-0.17555946111679077,-1.6949633359909058,-1.2600094079971313
1761141513578402000,6.994402099609375,-0.360519677400589,-1.6519004106521606,-1.8050678968429565
1761141513588461800,7.0044619140625,-0.4459432363510132,-1.2955985069274902,-2.2956149578094482
1761141513598521000,7.01452099609375,-0.4309476613998413,-0.8479568958282471,-2.504484176635742
1761141513608581000,7.0245810546875,-0.3710140287876129,-0.5446284413337708,-2.299003839492798
1761141513618641000,7.034640869140625,-0.34382250905036926,-0.3064601421356201,-1.5400307178497314
1761141513628701000,7.044700927734375,-0.31552907824516296,0.04885612800717354,-0.4559299945831299
1761141513638761000,7.054760986328125,-0.2990124821662903,0.3343811333179474,0.5596813559532166
1761141513648820000,7.064820068359375,-0.29977867007255554,0.5716016292572021,1.1658042669296265
1761141513658880000,7.0748798828125,-0.3764747977256775,0.5715985298156738,1.3281846046447754
1761141513668940000,7.08493994140625,-0.42983710765838623,0.5382530689239502,1.2984652519226074
1761141513678999800,7.094999755859375,-0.5272063612937927,0.32192033529281616,1.3495075702667236
1761141513689059000,7.10505908203125,-0.6243646144866943,0.11200626194477081,1.3965762853622437
1761141513699118800,7.115118896484375,-0.6121406555175781,0.07874996960163116,1.2195132970809937
1761141513709179000,7.125178955078125,-0.478525310754776,0.10569343715906143,0.9959614872932434
1761141513719239000,7.135239013671875,-0.25502100586891174,0.2047586739063263,0.9009554386138916
1761141513729299000,7.145298828125,-0.027863776311278343,0.3123983144760132,0.9279335737228394
1761141513739358000,7.15535791015625,0.17242389917373657,0.46496644616127014,1.0435649156570435
1761141513749418000,7.16541796875,0.32867369055747986,0.7659478783607483,1.1162633895874023
1761141513759477800,7.175477783203125,0.4347245991230011,1.0964727401733398,0.9221152663230896
1761141513769538000,7.1855380859375,0.4997965395450592,1.1782793998718262,0.44913309812545776
1761141513779597000,7.19559716796875,0.5972863435745239,1.0057425498962402,-0.10849930346012115
1761141513789656800,7.20565673828125,0.6787615418434143,0.6422889232635498,-0.5866397619247437
1761141513799716900,7.215716796875,0.7826696038246155,0.3971390128135681,-0.8876723051071167
1761141513809777000,7.22577685546875,0.8443633317947388,0.8221341967582703,-0.8834117650985718
1761141513819836000,7.2358359375,0.8644671440124512,1.4033091068267822,-0.6687454581260681
1761141513829896000,7.24589599609375,0.5265114903450012,1.4895176887512207,-0.3042926788330078
1761141513839956000,7.2559560546875,-0.07742419093847275,1.222812294960022,0.1957685649394989
1761141513850016000,7.26601611328125,-0.5085289478302002,0.8871551752090454,0.7436606884002686
1761141513860076000,7.276075927734375,-0.6678682565689087,0.558527410030365,1.1099762916564941
1761141513870135000,7.286135009765625,-0.7334632873535156,0.33822035789489746,1.1528390645980835
1761141513880194800,7.29619482421875,-0.7685102820396423,0.21891750395298004,0.9341493844985962
1761141513890254800,7.3062548828125,-0.7791187167167664,0.08089252561330795,0.5327596068382263
1761141513900315100,7.316315185546875,-0.747877836227417,-0.037461426109075546,-0.07309754937887192
1761141513910374000,7.326373779296875,-0.6667166948318481,-0.29663413763046265,-0.6482713222503662
1761141513920434000,7.336433837890625,-0.5771762728691101,-0.7384903430938721,-0.8169408440589905
1761141513930494000,7.346493896484375,-0.5038847327232361,-1.2042499780654907,-0.7068321704864502
1761141513940554000,7.356553955078125,-0.39516741037368774,-1.5228073596954346,-0.5484863519668579
1761141513950614000,7.366614013671875,-0.24387218058109283,-1.6391561031341553,-0.3899017870426178
1761141513960672800,7.3766728515625,-0.12015148997306824,-1.5402108430862427,-0.22890333831310272
1761141513970732800,7.38673291015625,-0.11121924966573715,-1.1990265846252441,-0.15204770863056183
1761141513980793000,7.39679296875,-0.1539042741060257,-0.8221641778945923,-0.10532302409410477
1761141513990853000,7.40685302734375,-0.10175079852342606,-0.3248652219772339,0.09990815073251724
1761141514000912000,7.416911865234375,-0.1029784306883812,0.023900659754872322,0.38354238867759705
1761141514010972000,7.426971923828125,-0.14883141219615936,0.26941826939582825,0.6823232173919678
1761141514021032000,7.437031982421875,-0.20198293030261993,0.5059327483177185,0.938676118850708
1761141514031092000,7.447092041015625,-0.23340582847595215,0.7302952408790588,1.1358176469802856
1761141514041152000,7.457152099609375,-0.22686849534511566,0.8738179802894592,1.3009943962097168
1761141514051211000,7.4672109375,-0.19097813963890076,0.9475492238998413,1.4564220905303955
1761141514061271000,7.47727099609375,-0.12012831121683121,0.9517424702644348,1.5989816188812256
1761141514071331000,7.4873310546875,-0.013966725207865238,0.8955481648445129,1.6949065923690796
1761141514081390800,7.497390869140625,0.11443398892879486,0.8764550089836121,1.6967607736587524
1761141514091449900,7.507449951171875,0.23433774709701538,0.8416193127632141,1.6325937509536743
1761141514101510100,7.51751025390625,0.3753443658351898,0.8865378499031067,1.5217782258987427
1761141514111570000,7.52756982421875,0.514721155166626,0.9996580481529236,1.3833996057510376
1761141514121630000,7.5376298828125,0.6206093430519104,1.1369163990020752,1.2465535402297974
1761141514131689000,7.54768896484375,0.680950403213501,1.21694016456604,1.1135510206222534
1761141514141749000,7.5577490234375,0.7023051977157593,1.2383371591567993,0.9938820600509644
1761141514151809000,7.56780908203125,0.6852068901062012,1.239121675491333,0.8796177506446838
1761141514161869000,7.577869140625,0.6324842572212219,1.120557188987732,0.7336438298225403
1761141514171928800,7.5879287109375,0.5487874746322632,0.9368833303451538,0.5194921493530273
1761141514181988000,7.597988037109375,0.4653366208076477,0.7077981233596802,0.21603262424468994
1761141514192048000,7.608048095703125,0.37204474210739136,0.40386486053466797,-0.16181613504886627
1761141514202108000,7.61810791015625,0.2708177864551544,0.04158860445022583,-0.5937023162841797
1761141514212168000,7.62816796875,0.24563387036323547,-0.31340545415878296,-0.9721912741661072
1761141514222227000,7.63822705078125,0.13470740616321564,-0.5725566148757935,-1.12943434715271
1761141514232287000,7.648286865234375,-0.1511555016040802,-0.7643292546272278,-0.9857707023620605
1761141514242347000,7.658346923828125,-0.3347517251968384,-1.163252592086792,-0.9421567916870117
1761141514252407000,7.668406982421875,-0.6996245384216309,-1.1924920082092285,-2.055333137512207
1761141514262466000,7.678466064453125,-0.8185176253318787,-0.9909772872924805,-4.205878257751465
1761141514272526000,7.688526123046875,-0.4060554504394531,-0.9971014857292175,-5.909303188323975
1761141514282585900,7.6985859375,-0.008893003687262535,-1.7044165134429932,-5.374190807342529
1761141514292646000,7.70864599609375,0.3170326352119446,-2.1073243618011475,-3.1331896781921387
1761141514302706000,7.718705810546875,0.6393047571182251,-1.7674189805984497,-0.5646615624427795
1761141514312765000,7.728764892578125,0.6351798176765442,-1.1803278923034668,1.002625823020935
1761141514322825000,7.738824951171875,0.5382785201072693,-0.9035277962684631,1.6087759733200073
1761141514332885000,7.748885009765625,0.35576674342155457,-0.9793144464492798,1.6293799877166748
1761141514342944800,7.75894482421875,0.07970379292964935,-1.0740745067596436,1.2596914768218994
1761141514353004000,7.769004150390625,-0.16761119663715363,-1.1338566541671753,0.7935065031051636
1761141514363064000,7.77906396484375,-0.34766390919685364,-1.1830379962921143,0.4241845905780792
1761141514373123800,7.789123779296875,-0.4318075478076935,-1.1468725204467773,0.23240025341510773
1761141514383184000,7.799183837890625,-0.4724770784378052,-0.9947877526283264,0.2253878265619278
1761141514393244000,7.809243896484375,-0.535034716129303,-0.791210949420929,0.35371464490890503
1761141514403303000,7.819302978515625,-0.5252597332000732,-0.2865838408470154,0.5296913981437683
1761141514413363000,7.829363037109375,-0.5220293402671814,-0.01001614611595869,0.7577442526817322
1761141514423423000,7.839423095703125,-0.47093909978866577,0.1925320029258728,1.0369153022766113
1761141514433483000,7.84948291015625,-0.46317893266677856,0.4004918336868286,1.2929401397705078
1761141514443542000,7.8595419921875,-0.5199668407440186,0.50753253698349,1.4861458539962769
1761141514453602000,7.86960205078125,-0.5894820094108582,0.5749738812446594,1.6093056201934814
1761141514463661800,7.879661865234375,-0.6416413187980652,0.5728071331977844,1.6663060188293457
1761141514473721900,7.889721923828125,-0.6627671122550964,0.5161198973655701,1.6462888717651367
1761141514483781000,7.899781005859375,-0.6496877074241638,0.44674932956695557,1.5624682903289795
1761141514493841000,7.9098408203125,-0.6024648547172546,0.34439152479171753,1.4307327270507812
1761141514503901000,7.91990087890625,-0.542671263217926,0.22655728459358215,1.2810044288635254
1761141514513961000,7.9299609375,-0.4872386157512665,0.10522764921188354,1.137358546257019
1761141514524021000,7.94002099609375,-0.4408957362174988,-0.030636079609394073,1.0244622230529785
1761141514534080000,7.950080078125,-0.3960781991481781,-0.11569397896528244,0.9557486772537231
1761141514544140000,7.96014013671875,-0.3171316981315613,-0.15604062378406525,0.928604006767273
1761141514554199800,7.97019970703125,-0.202015221118927,-0.27586665749549866,0.908794641494751
1761141514564260000,7.980260009765625,-0.042977429926395416,-0.49174854159355164,0.8849413990974426
1761141514574318800,7.99031884765625,0.13371504843235016,-0.7549189329147339,0.8474331498146057
1761141514584379000,8.00037890625,0.23132970929145813,-1.086047887802124,0.8025940656661987
1761141514594439000,8.01043896484375,0.3179181218147278,-1.3053711652755737,0.7730830311775208
1761141514604499200,8.020499267578124,0.3110407590866089,-1.3001962900161743,0.7364434003829956
1761141514614558000,8.030557861328125,0.1894136518239975,-1.2306734323501587,0.601159930229187
1761141514624618000,8.040617919921875,0.12613683938980103,-1.0208505392074585,0.4435597360134125
1761141514634677800,8.050677734375,0.0905708596110344,-0.6473051905632019,0.1917613297700882
1761141514644738000,8.060738037109376,0.07100175321102142,-0.31266629695892334,-0.15681053698062897
1761141514654798000,8.070798095703125,0.1308688223361969,0.012452676892280579,-0.5399965643882751
1761141514664856800,8.08085693359375,0.2643468379974365,0.28946763277053833,-0.8954467177391052
1761141514674916900,8.090916748046874,0.4168391823768616,0.4294646978378296,-1.096078634262085
1761141514684977200,8.10097705078125,0.5283989906311035,0.3752528727054596,-1.1066230535507202
1761141514695037000,8.111036865234375,0.6112304925918579,0.2740333080291748,-0.9886900782585144
1761141514705096000,8.121095947265625,0.669025182723999,0.21555393934249878,-0.8446075916290283
1761141514715156000,8.131156005859374,0.6958067417144775,0.19051089882850647,-0.7186354994773865
1761141514725216000,8.141216064453126,0.7201835513114929,0.2679712176322937,-0.5650887489318848
1761141514735276000,8.151276123046875,0.7549750804901123,0.37783804535865784,-0.3644872009754181
1761141514745335000,8.1613349609375,0.7725997567176819,0.45443016290664673,-0.13359519839286804
1761141514755394800,8.171394775390626,0.745911717414856,0.47039690613746643,0.032403092831373215
1761141514765455000,8.181455078125,0.6984058022499084,0.4093850553035736,0.07705371826887131
1761141514775515100,8.19151513671875,0.654811441898346,0.3315294086933136,0.015546155162155628
1761141514785574000,8.201573974609374,0.5829774737358093,0.22154487669467926,-0.08482865244150162
1761141514795634000,8.211634033203126,0.5385716557502747,0.1416977047920227,-0.17392869293689728
1761141514805694200,8.221694091796875,0.517604410648346,-0.0029543584678322077,-0.2283991575241089
1761141514815754000,8.23175390625,0.49486902356147766,-0.10758010298013687,-0.18725411593914032
1761141514825814000,8.24181396484375,0.4349696636199951,-0.13965117931365967,-0.02678782306611538
1761141514835872800,8.251872802734376,0.3533533811569214,-0.076640784740448,0.17067411541938782
1761141514845933000,8.26193310546875,0.28659939765930176,0.11484366655349731,0.32370269298553467
1761141514855993000,8.2719931640625,0.21777106821537018,0.31194767355918884,0.3699503540992737
1761141514866053000,8.28205322265625,0.13942702114582062,0.42646780610084534,0.2841593325138092
1761141514876112000,8.29211181640625,0.06313572078943253,0.3926376700401306,0.07820431888103485
1761141514886172200,8.302172119140625,-0.0033283191733062267,0.2792273163795471,-0.21788108348846436
1761141514896232000,8.31223193359375,-0.07341552525758743,0.13712476193904877,-0.5451492667198181
1761141514906292000,8.3222919921875,-0.1313071995973587,-0.04438496008515358,-0.8933702707290649
1761141514916351000,8.33235107421875,-0.17479261755943298,-0.200542613863945,-1.1344760656356812
1761141514926411000,8.342410888671875,-0.20273877680301666,-0.31565266847610474,-1.2159630060195923
1761141514936471000,8.352470947265624,-0.20011982321739197,-0.41747942566871643,-1.1492668390274048
1761141514946531000,8.362531005859376,-0.18212012946605682,-0.4558507204055786,-0.905925989151001
1761141514956590800,8.3725908203125,-0.15971441566944122,-0.4018692672252655,-0.5366216897964478
1761141514966650000,8.382650146484375,-0.14982323348522186,-0.28589972853660583,-0.16656158864498138
1761141514976710100,8.392710205078124,-0.13747283816337585,-0.11087142676115036,0.13118061423301697
1761141514986770000,8.40277001953125,-0.15463966131210327,0.09784938395023346,0.23233318328857422
1761141514996830000,8.412829833984375,-0.13889825344085693,0.18847276270389557,0.32412728667259216
1761141515006889200,8.42288916015625,-0.1686936914920807,0.2694866359233856,0.3052442967891693
1761141515016949000,8.432948974609374,-0.21126964688301086,0.34164443612098694,0.17499227821826935
1761141515027009000,8.443009033203126,-0.2618367075920105,0.33909720182418823,0.010075029917061329
1761141515037069000,8.453069091796875,-0.29390063881874084,0.254942923784256,-0.14682698249816895
1761141515047128000,8.463128173828125,-0.29626497626304626,0.14394710958003998,-0.2612549364566803
1761141515057188000,8.47318798828125,-0.2885250151157379,0.046026136726140976,-0.3205885887145996
1761141515067248000,8.483248046875,-0.28038591146469116,0.014727914705872536,-0.3299049735069275
1761141515077308000,8.493307861328125,-0.2766271233558655,0.04935220628976822,-0.3087773025035858
1761141515087367200,8.5033671875,-0.23784905672073364,0.11687391996383667,-0.26386550068855286
1761141515097427000,8.513427001953126,-0.19079925119876862,0.1850292682647705,-0.22789232432842255
1761141515107487000,8.523487060546875,-0.1553863137960434,0.23931774497032166,-0.20788532495498657
1761141515117547000,8.533547119140625,-0.1251743584871292,0.2579113841056824,-0.18472541868686676
1761141515127607000,8.54360693359375,-0.10444333404302597,0.2610790729522705,-0.15987880527973175
1761141515137666000,8.553666015625,-0.08075371384620667,0.22783374786376953,-0.1502043455839157
1761141515147726000,8.56372607421875,-0.06339272856712341,0.15509873628616333,-0.16335034370422363
1761141515157785900,8.573785888671875,-0.05147428810596466,0.061308056116104126,-0.18941815197467804
1761141515167846000,8.583845947265624,-0.040072545409202576,-0.0065455082803964615,-0.22203955054283142
1761141515177905200,8.5939052734375,-0.029130948707461357,-0.06425780802965164,-0.26123306155204773
1761141515187965000,8.60396484375,-0.01892116852104664,-0.09121114760637283,-0.29275190830230713
1761141515198025000,8.61402490234375,-0.015839889645576477,-0.08205121010541916,-0.31633421778678894
1761141515208085000,8.6240849609375,-0.006487155798822641,-0.053307950496673584,-0.30975398421287537
1761141515218144000,8.63414404296875,0.015246635302901268,-0.007578281685709953,-0.2805428206920624
1761141515228204000,8.6442041015625,0.03251814469695091,0.05753455311059952,-0.21886584162712097
1761141515238264000,8.65426416015625,0.047032639384269714,0.1424955129623413,-0.13001000881195068
1761141515248323800,8.66432373046875,0.056269723922014236,0.2665027678012848,-0.016938447952270508
1761141515258383000,8.674383056640625,0.07538296282291412,0.3883197605609894,0.10321219265460968
1761141515268443100,8.684443115234375,0.07047232240438461,0.473175585269928,0.2201337069272995
1761141515278503000,8.6945029296875,0.06933408230543137,0.519277811050415,0.3115914463996887
1761141515288563000,8.70456298828125,0.04007120802998543,0.5269690752029419,0.37039288878440857
1761141515298623000,8.714623046875,-0.023290984332561493,0.5106883645057678,0.3847199082374573
1761141515308682000,8.724681884765625,-0.09608051925897598,0.5263200998306274,0.3377777934074402
1761141515318742000,8.734741943359374,-0.12651938199996948,0.5199346542358398,0.25730186700820923
1761141515328802000,8.744802001953126,-0.07852505892515182,0.5106557607650757,0.19258210062980652
1761141515338861800,8.75486181640625,-0.052597589790821075,0.5759495496749878,0.13524024188518524
1761141515348921000,8.764921142578125,-0.05199174955487251,0.6572962999343872,0.08119280636310577
1761141515358980900,8.77498095703125,-0.08810900896787643,0.7114434242248535,0.03239118307828903
1761141515369041000,8.785041015625,-0.1622912585735321,0.6663478016853333,-0.014900810085237026
1761141515379101000,8.795100830078125,-0.22363132238388062,0.6309653520584106,-0.07203467190265656
1761141515389160000,8.805159912109374,-0.30290597677230835,0.48689156770706177,-0.09336309880018234
1761141515399220000,8.815219970703126,-0.4088699519634247,0.3628663122653961,-0.10058266669511795
1761141515409280000,8.825280029296875,-0.5391321182250977,0.2296302318572998,-0.14388848841190338
1761141515419339800,8.83533984375,-0.6517257690429688,0.04154554009437561,-0.22981804609298706
1761141515429399000,8.84539892578125,-0.7362912893295288,-0.17383916676044464,-0.3297378122806549
1761141515439459000,8.855458984375,-0.7648486495018005,-0.43354663252830505,-0.40706801414489746
1761141515449518800,8.865518798828125,-0.6614967584609985,-0.6200021505355835,-0.43172889947891235
1761141515459579000,8.875578857421875,-0.4960964024066925,-0.5770530700683594,-0.38606396317481995
1761141515469638000,8.885637939453124,-0.3600018620491028,-0.49037471413612366,-0.35018348693847656
1761141515479698000,8.895697998046876,-0.16169703006744385,-0.427435964345932,-0.33778834342956543
1761141515489757700,8.9057578125,0.1332133412361145,-0.4648423492908478,-0.375812292098999
1761141515499817700,8.915817626953125,0.3589511215686798,-0.5706002116203308,-0.4242860972881317
1761141515509878000,8.9258779296875,0.37191376090049744,-0.6701507568359375,-0.45198071002960205
1761141515519936800,8.935936767578125,0.2485998421907425,-0.6742890477180481,-0.44857800006866455
1761141515529996800,8.945996826171875,0.06844579428434372,-0.6397313475608826,-0.3710886538028717
1761141515540056800,8.956056884765625,-0.06559243053197861,-0.6140145659446716,-0.20183277130126953
1761141515550116900,8.966116943359374,-0.10541660338640213,-0.6055715084075928,0.07288070768117905
1761141515560175900,8.97617578125,-0.06295409798622131,-0.6152936220169067,0.41016873717308044
1761141515570236000,8.98623583984375,-0.014847084879875183,-0.6088212728500366,0.6950932145118713
1761141515580295700,8.996295654296874,-0.005811778362840414,-0.7160853743553162,0.7492762804031372
1761141515590356000,9.00635595703125,0.059896908700466156,-0.715284526348114,0.5317568182945251
1761141515600415000,9.0164150390625,0.1253371685743332,-0.7272229790687561,0.11748827248811722
1761141515610474800,9.026474853515625,0.128208726644516,-0.8052955865859985,-0.3073647916316986
1761141515620534800,9.03653466796875,0.048979952931404114,-0.741231381893158,-0.5643967986106873
1761141515630595000,9.046594970703126,-0.08911160379648209,-0.6930590271949768,-0.5169962644577026
1761141515640653800,9.05665380859375,-0.18417944014072418,-0.473208487033844,-0.13957859575748444
1761141515650713900,9.0667138671875,-0.25322240591049194,-0.032817304134368896,0.41125595569610596
1761141515660774000,9.07677392578125,-0.2386796772480011,0.6408321857452393,0.8693013191223145
1761141515670834000,9.086833984375,-0.14138148725032806,1.0602493286132812,1.101172924041748
1761141515680893000,9.096892822265625,-0.16022761166095734,1.4277069568634033,1.0236361026763916
1761141515690952700,9.10695263671875,-0.15049856901168823,1.5315234661102295,0.7029335498809814
1761141515701012700,9.1170126953125,-0.12081445008516312,1.5009607076644897,0.308543860912323
1761141515711073000,9.127072998046875,-0.04713217914104462,1.363713264465332,-0.016239847987890244
1761141515721133000,9.137133056640625,0.09087017178535461,1.0734097957611084,-0.2766636908054352
1761141515731191800,9.14719189453125,0.20453386008739471,0.5619433522224426,-0.5088278651237488
1761141515741251800,9.157251953125,0.3153775632381439,0.026517249643802643,-0.7387531995773315
1761141515751312000,9.167311767578125,0.46777722239494324,-0.41083475947380066,-1.0167431831359863
1761141515761372000,9.177371826171875,0.5999068021774292,-0.7721332907676697,-1.257047176361084
1761141515771431000,9.187430908203124,0.6476595401763916,-0.9776970744132996,-1.3877370357513428
1761141515781490700,9.19749072265625,0.6162989735603333,-0.9901998043060303,-1.3984317779541016
1761141515791551000,9.207551025390625,0.5359968543052673,-0.8414024710655212,-1.287265419960022
1761141515801611000,9.217611083984375,0.44550129771232605,-0.614349901676178,-1.0624545812606812
1761141515811669800,9.227669677734376,0.3757302165031433,-0.37119215726852417,-0.7530048489570618
1761141515821729800,9.237729736328125,0.3190743923187256,-0.08696868270635605,-0.4156392812728882
1761141515831790000,9.2477900390625,0.295125275850296,0.23811472952365875,-0.13137352466583252
1761141515841849900,9.257849853515625,0.24903768301010132,0.5265997648239136,0.022535881027579308
1761141515851908900,9.267908935546876,0.17849969863891602,0.7095769643783569,0.05232855677604675
1761141515861969000,9.277968994140625,0.09053336083889008,0.7362024784088135,0.012973691336810589
1761141515872029000,9.28802880859375,-0.011471199803054333,0.6570987105369568,-0.06702218949794769
1761141515882089000,9.2980888671875,-0.11907196044921875,0.514366626739502,-0.14477424323558807
1761141515892147700,9.308147705078126,-0.19708335399627686,0.3347160816192627,-0.2006913423538208
1761141515902207700,9.318207763671875,-0.24148596823215485,0.18587468564510345,-0.20326928794384003
1761141515912268000,9.32826806640625,-0.26536649465560913,0.05032988265156746,-0.1472223550081253
1761141515922327800,9.338327880859374,-0.28349944949150085,-0.061197709292173386,-0.03989269211888313
1761141515932386800,9.34838671875,-0.29702919721603394,-0.1422833949327469,0.10723518580198288
1761141515942446800,9.35844677734375,-0.31842851638793945,-0.18191282451152802,0.29089900851249695
1761141515952507000,9.3685068359375,-0.3248664140701294,-0.15613611042499542,0.48471444845199585
1761141515962567000,9.37856689453125,-0.3201616704463959,-0.09168441593647003,0.6723788976669312
1761141515972627000,9.388626953125,-0.3165843188762665,0.0007454538717865944,0.8417274355888367
1761141515982685700,9.398685791015625,-0.31261274218559265,0.1083717793226242,0.9767600893974304
1761141515992746000,9.40874609375,-0.308361679315567,0.18180111050605774,1.0646909475326538
1761141516002806000,9.418805908203124,-0.3259771466255188,0.18586988747119904,1.0990971326828003
1761141516012865800,9.42886572265625,-0.37008821964263916,0.10498813539743423,1.0600730180740356
1761141516022924800,9.4389248046875,-0.40310314297676086,-0.10184120386838913,0.9445551633834839
1761141516032985000,9.448985107421874,-0.37120234966278076,-0.32265573740005493,0.7590130567550659
1761141516043044900,9.459044921875,-0.3286050856113434,-0.49485307931900024,0.48781245946884155
1761141516053105000,9.46910498046875,-0.303000271320343,-0.671549916267395,0.12946078181266785
1761141516063163600,9.47916357421875,-0.2769066095352173,-0.594661295413971,-0.2761479616165161
1761141516073224000,9.489223876953124,-0.3017328381538391,-0.4043810963630676,-0.47785332798957825
1761141516083284000,9.499283935546876,-0.5534878373146057,-0.49521246552467346,-0.26730674505233765
1761141516093344000,9.509343994140625,-0.8566421270370483,-0.7185097336769104,0.15190616250038147
1761141516103402800,9.51940283203125,-0.9508770108222961,-0.6780147552490234,0.07304224371910095
1761141516113463000,9.529463134765624,-0.6523279547691345,-0.02687016874551773,-0.9756849408149719
1761141516123522800,9.539522705078125,-0.07801170647144318,0.906674861907959,-2.804994583129883
1761141516133582800,9.549582763671875,0.4895736873149872,0.8149675726890564,-3.7533862590789795
1761141516143641900,9.559641845703124,1.0161397457122803,0.04748741537332535,-3.2839691638946533
1761141516153702000,9.569701904296876,1.444574236869812,-0.3722299635410309,-2.4094130992889404
1761141516163762000,9.579761962890625,1.642115592956543,-0.5620406866073608,-1.3284971714019775
1761141516173822000,9.589822021484375,1.4495468139648438,-0.6302059888839722,-0.33587178587913513
1761141516183880700,9.599880615234374,1.1107980012893677,-0.5253445506095886,0.31072720885276794
1761141516193941000,9.60994091796875,0.7661589980125427,-0.34250539541244507,0.6077604293823242
1761141516204001000,9.6200009765625,0.34941208362579346,-0.14065909385681152,0.637454092502594
1761141516214060800,9.630060791015625,-0.02559911645948887,0.06176168844103813,0.579041600227356
1761141516224119800,9.640119873046874,-0.33593329787254333,0.18907970190048218,0.5703330636024475
1761141516234180000,9.65018017578125,-0.5530624985694885,0.1739565134048462,0.6312761902809143
1761141516244240000,9.660239990234375,-0.7219963669776917,0.06324943155050278,0.7135100960731506
1761141516254300000,9.6702998046875,-0.8081099390983582,-0.14891080558300018,0.7541513442993164
1761141516264360000,9.68035986328125,-0.7941770553588867,-0.3354026675224304,0.6914592385292053
1761141516274419000,9.6904189453125,-0.7678720355033875,-0.4822372794151306,0.5523583889007568
1761141516284479000,9.70047900390625,-0.6574275493621826,-0.670047402381897,0.4237556755542755
1761141516294539000,9.7105390625,-0.5486419796943665,-0.6767798662185669,0.366184264421463
1761141516304598800,9.720598876953124,-0.44300100207328796,-0.5849418044090271,0.3290741741657257
1761141516314658000,9.730657958984375,-0.3515057861804962,-0.4656161367893219,0.24941053986549377
1761141516324717800,9.7407177734375,-0.28581732511520386,-0.35032737255096436,0.16867601871490479
1761141516334777900,9.75077783203125,-0.24013583362102509,-0.264495849609375,0.13456881046295166
1761141516344838000,9.760837890625,-0.21367573738098145,-0.1574343740940094,0.14456738531589508
1761141516354897000,9.77089697265625,-0.19451777637004852,0.07498373836278915,0.134148508310318
1761141516364957000,9.78095703125,-0.171055868268013,0.2265077382326126,0.06858813762664795
1761141516375017000,9.791016845703124,-0.1541566401720047,0.22571425139904022,-0.06797455251216888
1761141516385076700,9.80107666015625,-0.1529289335012436,0.11945678293704987,-0.20905019342899323
1761141516395136000,9.811135986328125,-0.14413559436798096,-0.0978250652551651,-0.3051292896270752
1761141516405196000,9.821196044921875,-0.1006791889667511,-0.35924679040908813,-0.347883939743042
1761141516415255800,9.831255859375,-0.030347879976034164,-0.6274129152297974,-0.309775710105896
1761141516425315800,9.84131591796875,0.008069816045463085,-0.7904004454612732,-0.18760669231414795
1761141516435374800,9.851374755859375,0.008387172594666481,-0.8309539556503296,0.03220197558403015
1761141516445435000,9.861434814453125,0.005028127692639828,-0.7239827513694763,0.32108622789382935
1761141516455495000,9.871494873046874,0.017675839364528656,-0.49061882495880127,0.5551396012306213
1761141516465555000,9.881554931640625,0.0363086462020874,-0.2282029092311859,0.610685408115387
1761141516475614500,9.891614501953125,0.04785369336605072,-0.00044989027082920074,0.5002378821372986
1761141516485674500,9.901674560546875,0.05771671235561371,0.14206650853157043,0.31445014476776123
1761141516495734800,9.91173486328125,0.07592465728521347,0.2524665892124176,0.14382995665073395
1761141516505794600,9.921794677734376,0.09794554114341736,0.3948200047016144,0.03523636236786842
1761141516515853600,9.931853515625,0.13029269874095917,0.5355639457702637,0.10313878208398819
1761141516525913600,9.94191357421875,0.19847548007965088,0.6743042469024658,0.25789692997932434
1761141516535973600,9.9519736328125,0.27088463306427,0.7413584589958191,0.39663031697273254
1761141516546033700,9.96203369140625,0.3070458173751831,0.7278327941894531,0.4140007793903351
1761141516556092700,9.9720927734375,0.32283535599708557,0.656537652015686,0.2755218744277954
1761141516566152400,9.98215234375,0.34145376086235046,0.5241165161132812,-0.002752891043201089
1761141516576212700,9.992212646484376,0.3108353316783905,0.34813252091407776,-0.3458215594291687
1761141516586272800,10.002272705078125,0.25210487842559814,0.16604739427566528,-0.5864439606666565
1761141516596331500,10.01233154296875,0.1736518144607544,0.059221722185611725,-0.6167970299720764
1761141516606391600,10.0223916015625,0.11544761806726456,0.05329405516386032,-0.43666160106658936
1761141516616451800,10.032451904296876,0.09748278558254242,0.13514013588428497,-0.1259790062904358
1761141516626511600,10.04251171875,0.12030181288719177,0.21366079151630402,0.2055129110813141
1761141516636570600,10.052570556640624,0.16597343981266022,0.2523719370365143,0.45785558223724365
1761141516646630400,10.06263037109375,0.22841711342334747,0.2530033588409424,0.5350958108901978
1761141516656690700,10.072690673828125,0.30594876408576965,0.18942561745643616,0.46485504508018494
1761141516666750700,10.082750732421875,0.3880652189254761,0.10205183923244476,0.33219605684280396
1761141516676809500,10.0928095703125,0.4369836747646332,0.01964731514453888,0.17952241003513336
1761141516686869500,10.102869384765626,0.45641303062438965,-0.041878361254930496,0.04006331041455269
1761141516696929800,10.1129296875,0.44663795828819275,-0.11445620656013489,-0.08949751406908035
1761141516706989600,10.122989501953125,0.41555675864219666,-0.17763756215572357,-0.19263215363025665
1761141516717048600,10.133048583984374,0.35535529255867004,-0.219402477145195,-0.228348970413208
1761141516727108600,10.143108642578126,0.28814244270324707,-0.23833276331424713,-0.19194196164608002
1761141516737168600,10.153168701171875,0.23462139070034027,-0.2469504326581955,-0.06982061266899109
1761141516747228700,10.163228759765625,0.18892422318458557,-0.25568002462387085,0.065363310277462
1761141516757287700,10.17328759765625,0.14365264773368835,-0.2904428243637085,0.18262244760990143
1761141516767347500,10.183347412109375,0.08958220481872559,-0.31356143951416016,0.24645015597343445
1761141516777407700,10.19340771484375,0.035657867789268494,-0.3152172863483429,0.23492901027202606
1761141516787467800,10.2034677734375,-0.017234638333320618,-0.29111248254776,0.16894520819187164
1761141516797527600,10.213527587890624,-0.05685450881719589,-0.24427011609077454,0.10704305768013
1761141516807586600,10.223586669921875,-0.08490265160799026,-0.18262484669685364,0.07617489248514175
1761141516817646800,10.233646728515625,-0.10325828939676285,-0.11638876050710678,0.08801425993442535
1761141516827706600,10.24370654296875,-0.11007225513458252,-0.07080157101154327,0.1318693459033966
1761141516837766700,10.2537666015625,-0.1208023801445961,-0.04646243900060654,0.16110169887542725
1761141516847825400,10.263825439453125,-0.1361760050058365,-0.015208111144602299,0.2064894139766693
1761141516857885700,10.2738857421875,-0.1538832038640976,0.03732256963849068,0.27251648902893066
1761141516867945700,10.28394580078125,-0.16406448185443878,0.11533854156732559,0.3559972643852234
1761141516878004500,10.29400439453125,-0.17463688552379608,0.18258249759674072,0.4075799882411957
1761141516888064500,10.304064453125,-0.16264386475086212,0.27186229825019836,0.40452322363853455
1761141516898124800,10.314124755859375,-0.1451956331729889,0.3620864748954773,0.3379189074039459
1761141516908184600,10.3241845703125,-0.1319860965013504,0.3975760340690613,0.2179836928844452
1761141516918244600,10.33424462890625,-0.12711986899375916,0.4034476578235626,0.05109233781695366
1761141516928303600,10.3443037109375,-0.11223758012056351,0.3599227964878082,-0.12233404070138931
1761141516938363600,10.35436376953125,-0.06879237294197083,0.25217610597610474,-0.19371847808361053
1761141516948423700,10.364423583984374,-0.03934340551495552,0.1578136682510376,-0.11249978840351105
1761141516958483700,10.374483642578125,-0.02687641978263855,0.08754649758338928,0.06418579071760178
1761141516968542500,10.38454248046875,-0.040634043514728546,0.07442829757928848,0.2786861062049866
1761141516978602800,10.394602783203124,-0.041969507932662964,0.0499286912381649,0.5222774744033813
1761141516988662800,10.404662841796876,-0.02790854685008526,0.04719948396086693,0.6472098231315613
1761141516998722600,10.41472265625,-0.028241872787475586,0.020642878487706184,0.614306628704071
1761141517008781600,10.424781494140625,-0.050155159085989,-0.029249846935272217,0.4911719262599945
1761141517018841900,10.434841796875,-0.09628453850746155,-0.1112387403845787,0.3426063358783722
1761141517028901600,10.444901611328126,-0.1437266319990158,-0.19595469534397125,0.1870415210723877
1761141517038961700,10.454961669921875,-0.17498725652694702,-0.25226467847824097,0.059185683727264404
1761141517049020400,10.4650205078125,-0.18188005685806274,-0.24711118638515472,-0.01744944043457508
1761141517059080700,10.475080810546874,-0.1706697791814804,-0.16730153560638428,-0.02228342369198799
1761141517069140700,10.485140625,-0.16268189251422882,-0.06158122792840004,0.018663477152585983
1761141517079200800,10.49520068359375,-0.14838869869709015,0.060298606753349304,0.08241930603981018
1761141517089259500,10.505259521484374,-0.12664398550987244,0.15247860550880432,0.1356537640094757
1761141517099319800,10.51531982421875,-0.11077285557985306,0.16948924958705902,0.15184196829795837
1761141517109379600,10.525379638671875,-0.09497152268886566,0.13423486053943634,0.1343410164117813
1761141517119439600,10.535439697265625,-0.10658812522888184,0.04087788984179497,0.10805562138557434
1761141517129498600,10.54549853515625,-0.1317126601934433,-0.08228185772895813,0.10862180590629578
1761141517139558700,10.55555859375,-0.15080825984477997,-0.20282110571861267,0.13457734882831573
1761141517149618700,10.56561865234375,-0.1544959396123886,-0.27341166138648987,0.1553468108177185
1761141517159678700,10.5756787109375,-0.1568191647529602,-0.3051486611366272,0.17481562495231628
1761141517169737500,10.585737548828124,-0.16776181757450104,-0.3167770802974701,0.20404009521007538
1761141517179797800,10.5957978515625,-0.1949189007282257,-0.32114624977111816,0.22469060122966766
1761141517189857800,10.60585791015625,-0.2177610993385315,-0.3052748739719391,0.2263239175081253
1761141517199917600,10.61591748046875,-0.23602215945720673,-0.28580525517463684,0.22433526813983917
1761141517209976600,10.6259765625,-0.25961750745773315,-0.28931528329849243,0.2013881504535675
1761141517220036600,10.63603662109375,-0.3049395680427551,-0.31064972281455994,0.1360057145357132
1761141517230096600,10.6460966796875,-0.36069899797439575,-0.3494250774383545,0.044282201677560806
1761141517240156700,10.65615673828125,-0.4188637137413025,-0.38582977652549744,-0.04470337927341461
1761141517250215400,10.66621533203125,-0.4576380252838135,-0.381149560213089,-0.09795621037483215
1761141517260275700,10.676275634765625,-0.4717210829257965,-0.3546321988105774,-0.0954967811703682
1761141517270335700,10.686335693359375,-0.46504026651382446,-0.3046518564224243,-0.04601072520017624
1761141517280395500,10.6963955078125,-0.4374450743198395,-0.23924092948436737,0.038936469703912735
1761141517290454500,10.70645458984375,-0.4202072322368622,-0.12840628623962402,0.12978701293468475
1761141517300514800,10.716514892578125,-0.39575257897377014,-0.02019265480339527,0.21050982177257538
1761141517310574600,10.72657470703125,-0.35457611083984375,0.05262482911348343,0.2581242322921753
1761141517320634600,10.736634521484374,-0.3172893524169922,0.22888846695423126,0.3752279281616211
1761141517330693600,10.746693603515626,-0.2851013243198395,0.11745036393404007,0.28284952044487
1761141517340753700,10.756753662109375,-0.240303635597229,-0.01582978665828705,0.11212098598480225
1761141517350813700,10.766813720703125,-0.17230993509292603,-0.18129731714725494,-0.04727639630436897
1761141517360873700,10.776873779296874,-0.10624828189611435,-0.2854461967945099,-0.1476454734802246
1761141517370932500,10.786932373046875,-0.06214739754796028,-0.36829206347465515,-0.19988711178302765
1761141517380992800,10.79699267578125,-0.027858613058924675,-0.3852204978466034,-0.1638384759426117
1761141517391052800,10.807052734375,0.0109803956001997,-0.33996137976646423,-0.06391295045614243
1761141517401112600,10.817112548828124,0.03401565179228783,-0.26655083894729614,0.034371647983789444
1761141517411171600,10.827171630859375,0.08263378590345383,-0.21708180010318756,0.11187628656625748
1761141517421231600,10.837231689453125,0.12337843328714371,-0.22167269885540009,0.13394692540168762
