time,seconds_elapsed,z,y,x
1761139815646974200,0.07397412109375,-0.7115273903995752,-1.1609421598516403,0.2508602823100984
1761139815657033000,0.084032958984375,-0.6193897894501685,-1.2711213211871684,0.2507275227759033
1761139815667092000,0.094092041015625,-0.4141372659742832,-1.425174987823516,0.29386114658154544
1761139815677150000,0.10414990234375,-0.044724692389369006,-1.5047593966700137,0.38658158892020583
1761139815687209200,0.114209228515625,0.2500894440680742,-1.4950347059912978,0.3635990650005638
1761139815697268000,0.12426806640625,0.220471719917655,-1.5300475671835243,0.2234171987850219
1761139815707327200,0.1343271484375,-0.09596037410795688,-1.5101507343195377,0.016312325440719724
1761139815717385000,0.144385009765625,-0.5233902523756027,-1.3073646009571849,-0.17408135933838784
1761139815727444200,0.1544443359375,-1.0165484480947256,-0.8736242243684827,-0.2294005109783262
1761139815737503000,0.1645029296875,-1.486980432742834,-0.2765671166270971,-0.16651223925836384
1761139815747562200,0.174562255859375,-1.9513380659133195,0.24957857193648814,-0.07844407970495522
1761139815757620200,0.1846201171875,-2.3876374793350696,0.6869020677089691,0.07097396301999688
1761139815767679000,0.194678955078125,-2.620695709103346,1.0017768492899835,0.15127448424659667
1761139815777738000,0.204738037109375,-2.4095552966326474,1.237332302701473,0.10742862051837146
1761139815787797000,0.214796875,-1.8452835832923649,1.1661191240981221,0.02168108593225479
1761139815797855200,0.224855224609375,-1.1480588590115308,0.932409736944735,0.09387472694031894
1761139815807914000,0.2349140625,-0.5012549929350614,0.8612314835242927,0.14734664327837527
1761139815817973200,0.24497314453125,-0.14383973113596438,0.7004166521899402,0.16959734579212962
1761139815828031000,0.255031005859375,-0.22686054417192936,0.42424452622979875,0.04748626605719328
1761139815838090200,0.26509033203125,-0.7401046655863524,0.45755862068012354,-0.08600245919525623
1761139815848149000,0.27514892578125,-1.188984159117937,0.8271860060594975,-0.11082578867599367
1761139815858208300,0.285208251953125,-1.2001765842616556,1.0603389283739029,-0.06500526387393474
1761139815868266000,0.295265869140625,-0.9850205064088106,1.0879610947929321,0.07574234646558761
1761139815878325000,0.305324951171875,-0.6438140366107225,1.0908470254927873,0.32090529391691086
1761139815888384000,0.315384033203125,-0.20806524280905722,1.066115612079203,0.4925068922035396
1761139815898443000,0.325443115234375,0.11560206316709518,1.051182539102435,0.5652288679346442
1761139815908501200,0.335501220703125,0.14041501738429069,1.0217769963979721,0.4511990590529516
1761139815918560000,0.34556005859375,0.11884966678619384,0.9755275786593556,0.3101104167234152
1761139815928619300,0.355619384765625,0.0962467898339033,0.8173603392243385,0.19737620061021297
1761139815938678000,0.365677978515625,0.039243630629777905,0.668360156585276,0.052971163741685444
1761139815948736000,0.375736083984375,0.03119827134013176,0.6226420692443847,0.030467545912787317
1761139815958795000,0.385794921875,0.0014390928924083708,0.6106397890225053,0.12817472715545444
1761139815968854000,0.39585400390625,-0.17909809152185915,0.6942918856993318,0.2366625744031742
1761139815978913000,0.4059130859375,-0.47407414054274555,0.7734820345312357,0.30808592515848576
1761139815988971000,0.415970947265625,-0.8355921614855527,0.8454840254247188,0.2753234367089346
1761139815999030000,0.426030029296875,-1.1130308002501725,0.9168781135529279,0.19827592592891305
1761139816009089000,0.436089111328125,-1.277421151983738,0.9522744211047888,0.14542128297267481
1761139816019148000,0.44614794921875,-1.3020803769439457,0.9994614119544625,0.13484511743062175
1761139816029206000,0.4562060546875,-1.2661445556879043,0.9942553677439689,0.06719165886915289
1761139816039265300,0.466265380859375,-1.060636011624336,0.9361047920703888,0.024146270469389854
1761139816049324000,0.476323974609375,-0.7690332384288311,0.8865300293013453,-0.001183825789974071
1761139816059383000,0.486383056640625,-0.35995910106301304,0.874163884203136,0.008636194472399075
1761139816069441000,0.49644091796875,0.09175357006788253,0.8137722516044974,0.048170174934435636
1761139816079500000,0.5065,0.33427170209884643,0.6553092440932988,0.09112531863432377
1761139816089559000,0.51655908203125,0.3711848439544439,0.5082768543958663,0.11861615942441858
1761139816099617000,0.526616943359375,0.2209761623084545,0.46350978416949506,0.21099070180170237
1761139816109676000,0.536676025390625,-0.06104512807130813,0.46805181151330466,0.3454246720150113
1761139816119735000,0.546735107421875,-0.21947394105195997,0.5341729276746511,0.36648605514634397
1761139816129794000,0.5567939453125,-0.19185761985182762,0.667603200738132,0.2556485394999385
1761139816139852000,0.56685205078125,0.028595395365357396,0.6932353623837232,0.14369319880474357
1761139816149911000,0.5769111328125,0.3486298977971077,0.5815154013469815,0.1571756711144
1761139816159970000,0.586969970703125,0.7163695697337389,0.49816053405106064,0.15636574297100306
1761139816170029000,0.597029052734375,1.0931447810411452,0.46474575570523735,0.09313545288033782
1761139816180087000,0.607087158203125,1.5600193654686212,0.4481465030819177,0.1198242474393919
1761139816190146000,0.61714599609375,1.7501637516617774,0.22756080139577387,0.42475280454549935
1761139816200205000,0.627205078125,1.3256377781420945,-0.17508973266333341,0.9338990987196564
1761139816210264000,0.63726416015625,0.5480711046457291,-0.3848606103464961,1.1126268956243992
1761139816220322000,0.647322021484375,-0.22523381975293158,-0.13690145630538464,0.7986202021148056
1761139816230381000,0.657381103515625,-0.7010135951697826,0.4902463999256491,0.17087969548655674
1761139816240440000,0.667440185546875,-0.8758651351630687,0.9028615708991885,-0.13304415982272474
1761139816250499600,0.67749951171875,-0.7092208670228719,1.055757591933012,-0.11106147886170074
1761139816260557300,0.687557373046875,-0.1749485706269741,1.0517685222968458,0.05058151039248332
1761139816270616600,0.697616455078125,0.4479337371140718,1.0889932143196464,0.11481920569371432
1761139816280675300,0.70767529296875,1.0654577326923609,1.1065651113674044,0.09890791706824674
1761139816290734600,0.717734619140625,1.4256371985077858,0.8416726504430174,0.30889150592032816
1761139816300792600,0.72779248046875,1.2200322083324193,0.36365532523244615,0.5406917349841446
1761139816310851600,0.7378515625,0.5621633428841829,0.048935880343616005,0.4217612215140834
1761139816320910300,0.747910400390625,-0.08449965341687202,0.07090601235032082,0.03910776582304388
1761139816330968300,0.75796826171875,-0.41928047408163543,0.3193015119820833,-0.2860053185146302
1761139816341027600,0.768027587890625,-0.4668097024977207,0.5713201705470681,-0.4325830232471227
1761139816351086300,0.77808642578125,-0.25704642359912394,0.6787067785546184,-0.34319669376723466
1761139816361145600,0.7881455078125,0.17745090883672238,0.7050818675220012,-0.10763046323340386
1761139816371203300,0.798203369140625,0.6719231097638607,0.7197726561754941,0.1166371418358758
1761139816381262600,0.8082626953125,1.189510228818655,0.7629866517409681,0.1399667621601373
1761139816391321300,0.8183212890625,1.695060873121023,0.7192308043837546,0.170245909361355
1761139816401380600,0.828380615234375,1.8327029186606405,0.43900253490060565,0.40902996943052855
1761139816411438600,0.8384384765625,1.4649971489936113,0.03009147914201021,0.5949076746225357
1761139816421497600,0.84849755859375,0.8322621402800082,-0.15553689093142747,0.4877794252902269
1761139816431556400,0.858556396484375,0.314881941974163,-0.06364215882718563,0.16382818780615924
1761139816441615600,0.86861572265625,0.038512978267669674,0.09881459449529648,-0.1279934157717973
1761139816451673600,0.878673583984375,0.027110125243663786,0.18622575144469736,-0.28332115746457126
1761139816461732400,0.888732421875,0.2162882967531681,0.21105478001385927,-0.2949099980473518
1761139816471791600,0.89879150390625,0.6391629959344863,0.301342076921463,-0.18310082435719668
1761139816481850400,0.908850341796875,1.130837090575695,0.4179252600803971,-0.06765292883850633
1761139816491908600,0.91890869140625,1.5277163477569817,0.4730407058417797,-0.054747087373025714
1761139816501967400,0.92896728515625,1.9022943412810562,0.5096589564040303,-0.08545341047775
1761139816512026600,0.939026611328125,2.23276606657505,0.5038701438695192,-0.052921004457026716
1761139816522085400,0.94908544921875,2.425318682953715,0.36314737571030853,0.13445694923009724
1761139816532143600,0.9591435546875,2.340017065504193,0.1907847299233079,0.3894725611213594
1761139816542202400,0.969202392578125,2.0123124668359753,0.10716712003797292,0.491630913086608
1761139816552261600,0.97926171875,1.635136273512244,0.20727350790947674,0.39835985112786293
1761139816562319600,0.989319580078125,1.487838510876894,0.46744507779181,0.2689127294164151
1761139816572378400,0.99937841796875,1.5168535929590463,0.6174222887694836,0.2507765495494008
1761139816582437600,1.009437744140625,1.7623031022667883,0.722850163924694,0.3647808951962739
1761139816592496400,1.019496337890625,1.961484781396389,0.6983361926540732,0.45157333572544156
1761139816602554600,1.0295546875,2.115021146160364,0.5787359997615218,0.3940771323073655
1761139816612613400,1.03961328125,2.213711822015047,0.41507103969305753,0.28466091816835104
1761139816622672600,1.049672607421875,2.219108712622523,0.23079554553329942,0.3230832955431193
1761139816632731400,1.0597314453125,1.9953034643679857,-0.016420973446965217,0.6055071753744036
1761139816642789400,1.069789306640625,1.4099082989782095,-0.21456395717859267,0.8734650882840156
1761139816652848400,1.079848388671875,0.6278565890222787,-0.1783341214120388,0.8639701877731829
1761139816662907400,1.089907470703125,-0.026461890468001365,-0.02197860757410526,0.6489880782477557
1761139816672966400,1.09996630859375,-0.5959335105389356,-0.026057109059393405,0.4840245297361165
1761139816683024400,1.1100244140625,-1.0509235959053038,-0.19464812735319137,0.3506579695586115
1761139816693083600,1.120083740234375,-1.2140437815725802,-0.46536271855980155,0.3191717481225729
1761139816703142400,1.130142333984375,-1.1396849984198807,-0.7803086656808853,0.3250317992623895
1761139816713201400,1.140201416015625,-1.0785866788566112,-0.9698790513783693,0.2204947354670614
1761139816723259400,1.15025927734375,-1.2798095084249972,-0.9391898986041546,-0.03529244531858712
1761139816733318700,1.160318603515625,-1.6524778689354658,-0.7777475830212235,-0.2722282106399536
1761139816743377400,1.17037744140625,-1.9569436308354138,-0.5860431079044938,-0.25991838057255373
1761139816753435400,1.180435302734375,-2.0954624592095614,-0.4162947362691164,-0.0472135226635728
1761139816763494400,1.190494384765625,-2.0086352396279574,-0.2534801094196737,0.16252941669989376
1761139816773553400,1.200553466796875,-1.754810116162896,-0.12681991501301526,0.354339069224149
1761139816783612400,1.2106123046875,-1.5138450587928294,-0.07586538832336663,0.39964134230576454
1761139816793670400,1.22067041015625,-1.2442810989260673,-0.13643793044686317,0.36840368880331514
1761139816803729400,1.2307294921875,-1.0998942553013562,-0.2583672969393432,0.32052045931778844
1761139816813788400,1.240788330078125,-1.1101724882096051,-0.45764366861507294,0.21531948825363068
1761139816823847400,1.250847412109375,-1.1549036103397607,-0.6171291510418057,-0.005579553698003292
1761139816833905400,1.260905517578125,-1.2158610601276159,-0.69271922955513,-0.21110607180967925
1761139816843964700,1.270964599609375,-1.2258464475691317,-0.6842056682318448,-0.25741704700980333
1761139816854023400,1.2810234375,-1.1801362512737512,-0.6182217685841024,-0.090197627596464
1761139816864082700,1.291082763671875,-1.0738123040616512,-0.6267810687452554,0.16878290587039663
1761139816874140400,1.301140380859375,-0.8034399504214524,-0.6567690875127912,0.5098196268584579
1761139816884199400,1.311199462890625,-0.42613925393521784,-0.619331045000255,0.7778136339947581
1761139816894258400,1.321258544921875,0.00678045392036438,-0.624276246317476,0.9431379055775702
1761139816904317400,1.3313173828125,0.3346341056704521,-0.7872296971157192,0.9830790900174528
1761139816914375400,1.34137548828125,0.6002496201723814,-0.9924017027013003,0.9301995135493576
1761139816924434400,1.351434326171875,0.6679857703149318,-1.2424733188517392,0.8347734655138105
1761139816934493400,1.361493408203125,0.582805148896575,-1.4793671812601386,0.8532637195155024
1761139816944551400,1.371551513671875,0.43603462500572204,-1.496262348090112,0.8489666068434715
1761139816954610700,1.381610595703125,0.3330909678816795,-1.3192739421986042,0.7671455980513244
1761139816964669400,1.39166943359375,0.2508949152320623,-1.045917019789666,0.650951852601394
1761139816974728700,1.401728759765625,0.1661690518438816,-0.8000777805119752,0.6118075176276266
1761139816984786400,1.411786376953125,0.12511106526851654,-0.6371360201515257,0.5679619461603462
1761139816994845400,1.421845458984375,0.12561609218120573,-0.5158266852535307,0.5330837441984564
1761139817004904400,1.431904541015625,-0.10834814651608467,-0.44373497024998065,0.47892947161942717
1761139817014963500,1.44196337890625,-0.7504179698079824,-0.48606487645730373,0.3849774416591972
1761139817025021400,1.452021484375,-1.4995809711188077,-0.4546162836179137,0.12274084727214649
1761139817035080400,1.46208056640625,-2.131252149993181,-0.2697263108216226,-0.15746197724249214
1761139817045139500,1.472139404296875,-2.665304081636667,-0.10501856370195746,-0.4724885518517345
1761139817055198500,1.482198486328125,-2.9685253964334724,0.04622852108106017,-0.7811629444226622
1761139817065256700,1.492256591796875,-3.0238819574743507,0.12105214526653289,-1.050171608494222
1761139817075315500,1.5023154296875,-2.7323838136970995,0.22577011858671903,-1.3256060678295791
1761139817085374700,1.512374755859375,-2.1548346856325864,0.40442163538485765,-1.4891259203389287
1761139817095433500,1.52243359375,-1.569035031095147,0.5037067700013518,-1.5244611453533172
1761139817105491500,1.532491455078125,-1.1720949836373329,0.5448562342524528,-1.469189193855971
1761139817115550500,1.542550537109375,-1.0148433977425098,0.6201818166106939,-1.3155609130248427
1761139817125609500,1.552609375,-0.9864794730454682,0.8135755599886179,-1.2256592544339597
1761139817135667500,1.56266748046875,-1.0319622903257608,0.9815738730862736,-1.0825151774119586
1761139817145726500,1.5727265625,-1.0874725806236267,0.9702964000076055,-0.9629024903640151
1761139817155785500,1.582785400390625,-1.1939999414533375,0.8438830199688673,-0.8453504621729254
1761139817165844500,1.592844482421875,-1.2299269948810339,0.839234025119245,-0.7856861209355295
1761139817175902500,1.60290234375,-0.9921247854560613,1.02041009195894,-0.6316007439866662
1761139817185961500,1.61296142578125,-0.6521259378820657,1.1443591277107596,-0.4569641619183123
1761139817196020500,1.6230205078125,-0.26233751574456693,1.2312468453079461,-0.31696313216239214
1761139817206079500,1.63307958984375,0.22946575823426246,1.2873568550646304,-0.10652129641510545
1761139817216137500,1.643137451171875,0.7276081721067428,1.2104939801365135,0.15217004484683275
1761139817226196500,1.653196533203125,1.1512217069566248,1.1227706884980202,0.39946839689165353
1761139817236255500,1.66325537109375,1.4469102881610392,0.9901017551958561,0.6134056004740297
1761139817246314500,1.673314453125,1.5795622703284025,0.7962061997756361,0.6665531071633101
1761139817256375000,1.683375,1.6546797628939152,0.693871614460647,0.5379919014409185
1761139817266434300,1.693434326171875,1.8378414505928753,0.6513914861276745,0.45298312945812935
1761139817276493000,1.7034931640625,2.0828601672679183,0.6416445836171507,0.341044959093444
1761139817286551000,1.713551025390625,2.1959370958715674,0.5292819407626986,0.3061094374537468
1761139817296610000,1.723610107421875,2.109890213012695,0.44945612437576055,0.3016393793676048
1761139817306669000,1.7336689453125,1.9002654658019542,0.5303489854723215,0.27792784705366935
1761139817316728000,1.74372802734375,1.6487445276260375,0.6827443635076283,0.1829328108465299
1761139817326786000,1.7537861328125,1.4347113163232803,0.7793699235260486,0.06374656904973089
1761139817336845000,1.763844970703125,1.2035925301849841,0.8031231395572423,0.05173584979306906
1761139817346904000,1.773904052734375,0.993279800710082,0.7418892109155655,0.11995465061971917
1761139817356963000,1.783963134765625,0.929095790091157,0.7073655945450067,0.14860807804893703
1761139817367021000,1.79402099609375,1.0629185696035623,0.7171148351430893,0.20416589728295803
1761139817377080300,1.804080322265625,1.2060463530778884,0.664274056315422,0.24168259452227503
1761139817387139000,1.81413916015625,1.2952321184843778,0.587297784140706,0.202504430344142
1761139817397198000,1.824197998046875,1.2478192099243401,0.46567251516133545,0.0459619151672814
1761139817407256000,1.834256103515625,1.0459259337484836,0.2791425200730562,-0.17489585405904798
1761139817417315000,1.844315185546875,0.8244009053856134,0.13328092772066594,-0.37389680632688105
1761139817427374000,1.8543740234375,0.6078180096000433,0.04365501733124256,-0.55796673144456
1761139817437433000,1.86443310546875,0.560346648851037,0.033117841225862504,-0.5743645432116463
1761139817447491000,1.874490966796875,0.6592810703337192,0.015390753616392612,-0.4203171236529946
1761139817457550000,1.884550048828125,0.8575561560124159,0.04303542412817478,-0.2579347507409751
1761139817467609000,1.894609130859375,1.1093787074834107,0.008031623025238514,-0.12645745664248242
1761139817477667000,1.9046669921875,1.2983277464121579,-0.12499562219530343,-0.06654107687277719
1761139817487726300,1.914726318359375,1.4336270282179115,-0.34971418590247627,0.06960219974275678
1761139817497785000,1.92478515625,1.397045894795656,-0.5422384529694915,0.1493496353975497
1761139817507844000,1.934843994140625,1.2231664147049188,-0.6705094435736536,0.18560867899227887
1761139817517902000,1.944902099609375,0.8306687336087226,-0.743029613122344,0.18951186044327914
1761139817527961000,1.954961181640625,0.3898427826732397,-0.7352388131156563,0.08319267160468734
1761139817538020000,1.96502001953125,0.11557575968205928,-0.6383876276478171,-0.06582058057850226
1761139817548079000,1.9750791015625,0.02655833657979965,-0.514057191362977,-0.060766959583899
1761139817558137000,1.98513720703125,0.02069382846057415,-0.48544396807998413,0.09393971846792847
1761139817568196000,1.995196044921875,0.05318389317691326,-0.5011079856798053,0.20551632551122456
1761139817578255000,2.005255126953125,0.08518705115914345,-0.4460042303562164,0.22244497448569162
1761139817588313000,2.01531298828125,0.16187515404224395,-0.4392296216547489,0.2524272758984938
1761139817598372000,2.0253720703125,0.22488602922856807,-0.4172963145270943,0.3028953525117598
1761139817608431000,2.03543115234375,0.3428863857090473,-0.417295145483315,0.3443255151340738
1761139817618490000,2.045489990234375,0.4684212293475866,-0.45575756260752676,0.39914647146090865
1761139817628548000,2.055548095703125,0.5894143379032611,-0.4936299048840999,0.34873576932437717
1761139817638607000,2.065607177734375,0.7378326290011405,-0.47739773200750346,0.22237883218061177
1761139817648666000,2.075666015625,0.8153910849779844,-0.5590998636603355,0.20475812755506484
1761139817658725000,2.08572509765625,0.6757511436194181,-0.7319210668697953,0.17760714057805016
1761139817668783000,2.095783203125,0.5196826300293207,-0.7592129784211515,0.057502226733486164
1761139817678842000,2.105842041015625,0.49258536426723,-0.6709273767247795,-0.08041748040346429
1761139817688901000,2.115901123046875,0.5388783288866281,-0.5491995241537689,-0.15412832104144616
1761139817698960100,2.125960205078125,0.591647211521864,-0.39227497825622554,-0.19314988815207032
1761139817709018000,2.13601806640625,0.587680061456561,-0.25270839439481496,-0.2363464941913262
1761139817719077000,2.1460771484375,0.47189095128476616,-0.1855751785814762,-0.34867709793969986
1761139817729135900,2.156135986328125,0.27276713982224465,-0.17124942384809255,-0.5264232633959501
1761139817739194000,2.166194091796875,0.14350012391805647,-0.21923019542396066,-0.6735765760593115
1761139817749253000,2.176253173828125,-0.09751987850964068,-0.3636325288787484,-0.6628615591689944
1761139817759312100,2.18631201171875,-0.4859855276107788,-0.505252538138628,-0.5573274106277153
1761139817769371100,2.19637109375,-0.8996586832046508,-0.5714005423069,-0.4154072128448635
1761139817779429000,2.20642919921875,-0.9770184017390012,-0.6754349172770977,-0.19588702149838208
1761139817789488000,2.216488037109375,-0.5153285264730453,-0.7134963523849844,0.04427506719203666
1761139817799547100,2.226547119140625,0.11477438017129897,-0.5759595207855105,0.28897132871337233
1761139817809606100,2.236606201171875,0.5151140069395304,-0.5163356576889753,0.533406290683709
1761139817819664100,2.2466640625,0.4753478137403726,-0.7023609181255102,0.7215123394496739
1761139817829723100,2.25672314453125,0.09849369197785854,-0.855401608327031,0.788315738786757
1761139817839782000,2.266781982421875,-0.18759061005711555,-0.7017372332692146,0.7560550989121199
1761139817849841200,2.276841064453125,-0.30196342369019985,-0.33574761987030505,0.6364049293980002
1761139817859899100,2.286899169921875,-0.2629670458197593,0.05801993503123522,0.5885272894030437
1761139817869958100,2.296958251953125,-0.2325876896470785,0.3837096867457032,0.634331337994337
1761139817880017200,2.30701708984375,-0.5209861138433217,0.5036385270707309,0.6457562567196786
1761139817890075100,2.3170751953125,-0.9414642732769251,0.5322451744824648,0.5128183702830225
1761139817900134100,2.327134033203125,-1.3601070339769123,0.5289508091121912,0.442454501985386
1761139817910193200,2.337193115234375,-1.8374182567447424,0.5027909703306853,0.3884422682255506
1761139817920252200,2.347252197265625,-2.2826246147215365,0.5003089442566037,0.33649708653073757
1761139817930310000,2.357309814453125,-2.5015426754564047,0.47461993785724044,0.30156344632087273
1761139817940369200,2.367369140625,-2.4774656342983246,0.4234237113662064,0.40072073504030703
1761139817950428000,2.377427978515625,-2.2061399254560468,0.47644028515219683,0.5130963835068046
1761139817960487200,2.387487060546875,-1.7909961127877234,0.6473525860004127,0.48883616780154404
1761139817970545200,2.397545166015625,-1.3117366785615683,0.7793661241337656,0.39000338006243107
1761139817980604200,2.407604248046875,-0.9171738816291093,0.7055550379917025,0.4778823006540537
1761139817990663200,2.4176630859375,-0.5466717592418193,0.5376368043929338,0.6288135244209319
1761139818000722200,2.42772216796875,-0.3524789744406938,0.3424856959536671,0.7127958759654313
1761139818010780200,2.4377802734375,-0.15598960313498972,0.14944149666577577,0.7781280337061732
1761139818020839200,2.447839111328125,-0.02622632814645767,0.038899931758642196,0.8013532072752714
1761139818030898200,2.457898193359375,0.0714993020683527,0.006743921302258968,0.6436560695700347
1761139818040956000,2.467955810546875,0.12488485529720783,0.06945873615145683,0.37353586405999956
1761139818051015200,2.47801513671875,0.15627134268581866,0.15789631353914738,0.05313259224793873
1761139818061074000,2.488073974609375,0.2917605941057205,0.2618018014326691,-0.21083014094512909
1761139818071133200,2.49813330078125,0.4913333183795213,0.295750832785666,-0.3842985194843262
1761139818081191200,2.508191162109375,0.6225134744286537,0.26399726565033194,-0.4287659126443788
1761139818091250200,2.518250244140625,0.5998994915604591,0.19101006311178206,-0.3911270503301173
1761139818101309200,2.52830908203125,0.484612485691905,0.17573562935143708,-0.2924076415712945
1761139818111368200,2.5383681640625,0.3866349265426397,0.17971388533264399,-0.1537022959154099
1761139818121426200,2.54842626953125,0.2772521762818098,0.16883447166085241,-0.018849104776186867
1761139818131485200,2.558485107421875,0.0915197613120079,0.21909926252067088,0.13990749712041578
1761139818141544200,2.568544189453125,-0.16717326045036315,0.354410819286108,0.21063699299320576
1761139818151602000,2.578601806640625,-0.3801490716546774,0.500588053458929,0.1241334798074793
1761139818161661200,2.5886611328125,-0.5412924042910338,0.6298232129201292,-0.00537741872202605
1761139818171720000,2.598719970703125,-0.6468126339048147,0.6250394857749343,-0.04846757784527726
1761139818181779200,2.608779296875,-0.6826981862783431,0.5418883243575692,-0.08440032122824341
1761139818191837200,2.618837158203125,-0.6259276667863131,0.4303779144182801,-0.19757048107329755
1761139818201896200,2.628896240234375,-0.4658996019154787,0.32480507783442736,-0.3184631614618003
1761139818211955000,2.638954833984375,-0.11774375137090683,0.19816841043382882,-0.37042898408584296
1761139818222014200,2.64901416015625,0.4089338521122932,0.05615414115935564,-0.3385260350750759
1761139818232072200,2.659072265625,0.9261065451472997,-0.04452595494687557,-0.24299733038265256
1761139818242131000,2.669130859375,1.3310235628336666,-0.034655426056683064,-0.15426599421277642
1761139818252187100,2.679187255859375,1.6431027223467827,-0.011900573413074015,-0.10943986900923773
1761139818262246100,2.68924609375,1.746048133036494,-0.06139437990039587,-0.017178459017071872
1761139818272304000,2.69930419921875,1.5282155294507742,-0.16277122609913347,0.00022854805886745453
1761139818282363100,2.709363037109375,1.1702297742873429,-0.1411281340897083,-0.16739888589978216
1761139818292422100,2.719422119140625,0.8023685217976569,-0.11612462573647499,-0.26251113701211287
1761139818302480000,2.72947998046875,0.5405646745383739,-0.1580991426348686,-0.2876782932281494
1761139818312539100,2.7395390625,0.40985973478555676,-0.17017478035390377,-0.22380097393821924
1761139818322598000,2.749597900390625,0.3816635678708553,-0.1424769183501601,-0.09502704791375435
1761139818332657200,2.7596572265625,0.3263128520488739,-0.12766308783888816,-0.04339194594826549
1761139818342715100,2.769715087890625,0.32856735297739503,-0.08335691312253475,-0.10052953605386428
1761139818352774100,2.779774169921875,0.5598784468173981,-0.04611439318209886,0.026807215040642766
1761139818362833000,2.7898330078125,0.7440799989581107,-0.1209691431581974,0.30293584891892966
1761139818372892200,2.79989208984375,0.7994248695611953,-0.11517214731723069,0.5014593929333612
1761139818382950100,2.8099501953125,0.7257710198074578,0.01614624815881252,0.5229995725575834
1761139818393009000,2.8200087890625,0.5950380230039358,0.12252338686287402,0.5004597143715247
1761139818403068200,2.830068115234375,0.48046179575324055,0.09018091392368077,0.5452744231319054
1761139818413126000,2.8401259765625,0.31188685181140896,-0.02941606409847736,0.570523028820008
1761139818423185200,2.85018505859375,0.0889361745595932,-0.15870178470313548,0.5108732640972361
1761139818433244000,2.860243896484375,-0.14439561145305632,-0.275149943305552,0.44454237764272836
1761139818443303200,2.87030322265625,-0.29225568414628506,-0.26161826155930756,0.4454039994407445
1761139818453361200,2.880361083984375,-0.3286597074359655,-0.13527736223489045,0.4802451573278755
1761139818463420200,2.890420166015625,-0.26889175969362256,-0.03901040639579296,0.49553891684319823
1761139818473479000,2.90047900390625,-0.02501286070346832,-0.019933365482091903,0.5902848371274769
1761139818483538200,2.9105380859375,0.31412264803946016,-0.13786036446541547,0.7389676974456757
1761139818493596200,2.92059619140625,0.562360911282897,-0.24993805289864537,0.8894365643978118
1761139818503655000,2.930655029296875,0.6094190150558948,-0.3075210578173399,0.9223033534720539
1761139818513714200,2.940714111328125,0.4930892221361398,-0.3564224513694644,0.7777890840753913
1761139818523772000,2.95077197265625,0.2865636099845171,-0.4588830011516809,0.6544535771120339
1761139818533831200,2.9608310546875,0.018803484669327734,-0.5581260501921177,0.5514986314089968
1761139818543890000,2.970889892578125,-0.1563607745349407,-0.5396279782101512,0.4983679662566632
1761139818553949200,2.98094921875,-0.23816227490901945,-0.46152796270251273,0.5351353794986382
1761139818564007200,2.991007080078125,-0.18953472986221312,-0.3749970957189798,0.6888032982204109
1761139818574066200,3.001066162109375,-0.06792378166913986,-0.3462733977988362,0.9078167090885341
1761139818584125000,3.011125,-0.00988660324215889,-0.33626872113496065,1.020560533280298
1761139818594184200,3.02118408203125,0.002424012276530266,-0.3543392153546214,0.9836006296735257
1761139818604242200,3.0312421875,0.08612871592342854,-0.3651952481508255,0.88915314434655
1761139818614301000,3.041301025390625,0.1386895087659359,-0.41476270439624785,0.8063410056252032
1761139818624360200,3.051360107421875,0.05811082818508148,-0.5247779073417187,0.6768813166931271
1761139818634419000,3.0614189453125,-0.2359697333008051,-0.5698784473061561,0.41451274822317064
1761139818644477200,3.071477294921875,-0.6174801564365625,-0.5042766788437962,-0.0038245175910647956
1761139818654536000,3.081535888671875,-0.9431681545853614,-0.3860962896212935,-0.35064832494743164
1761139818664595200,3.09159521484375,-1.2672908031135797,-0.44083501102477307,-0.49391149830445646
1761139818674653000,3.10165283203125,-1.5327520038366318,-0.7084986902281641,-0.48661717657782133
1761139818684712200,3.111712158203125,-1.5037199706196784,-0.9238117122083902,-0.34190259883608665
1761139818694771000,3.12177099609375,-1.405865745589137,-0.9323179670080542,-0.1517589615616016
1761139818704830200,3.131830322265625,-1.26967740598917,-0.8707149127930403,-0.018665720166452227
1761139818714888200,3.14188818359375,-0.7943482969492673,-0.7790490210086107,0.12563698883876204
1761139818724947000,3.151947021484375,-0.17103695014119147,-0.7324220021292567,0.3126824226358905
1761139818735006200,3.162006103515625,0.32330373336076734,-0.7152145544797182,0.3479361433792859
1761139818745065000,3.17206494140625,0.7500789471119642,-0.6291694251865149,0.21365601202081888
1761139818755123200,3.182123291015625,0.9480483278423547,-0.5369862315297127,-0.048376858221366996
1761139818765182000,3.192181884765625,0.8076701353371143,-0.36709465203136205,-0.34428879985287786
1761139818775241200,3.2022412109375,0.50274961540699,-0.1529541809618473,-0.6268715235076844
1761139818785300000,3.212300048828125,0.137812725931406,0.006132219144701957,-0.8696902459204197
1761139818795358200,3.222358154296875,-0.10748656125068663,0.18489450284093617,-1.0033505283474922
1761139818805417000,3.2324169921875,-0.21410335392951965,0.3972068817004561,-1.0059244704887271
1761139818815476200,3.242476318359375,-0.26179975560605523,0.507553800818324,-0.8124044703826308
1761139818825534200,3.2525341796875,-0.2783732892662287,0.5001651518717408,-0.4396251968435943
1761139818835593000,3.262593017578125,-0.38751346294283867,0.5755196680635214,0.05558339206669479
1761139818845652200,3.27265234375,-0.8130763782948255,0.6970756711989641,0.4340174034317955
1761139818855711000,3.2827109375,-1.3611468984186648,0.827684164839983,0.5909906473092734
1761139818865769200,3.292769287109375,-1.679924678787589,0.9923448579475284,0.5636124457139522
1761139818875828000,3.302827880859375,-1.767026039135456,1.073958142273128,0.3968322762344032
1761139818885887200,3.31288720703125,-1.5971207233726978,1.121747190669179,0.10807780514210462
1761139818895946000,3.322946044921875,-1.1212450863659382,1.1331950518786906,-0.2801629674282856
1761139818906004000,3.33300390625,-0.3906377324432134,1.165337618331611,-0.6373514895331114
1761139818916063000,3.34306298828125,0.31973405818045136,1.1204483830302954,-0.8874844074167311
1761139818926122000,3.3531220703125,1.0037608627140522,0.9763584765255451,-1.0291863958716392
1761139818936180200,3.36318017578125,1.4099158977627753,0.8658060979634523,-1.0724541674509644
1761139818946239000,3.373239013671875,1.4868623593211172,0.794052528873086,-1.1038853707641363
1761139818956298200,3.38329833984375,1.39797119294703,0.8000961929515004,-1.197346256206557
1761139818966357000,3.39335693359375,1.346271400848031,0.9085065910488367,-1.313659024926275
1761139818976415200,3.403415283203125,1.351634973707795,1.008994379453361,-1.2937361808381973
1761139818986474000,3.413473876953125,1.3204554070681334,1.030811074464023,-1.077411716793105
1761139818996533200,3.423533203125,1.1467571287631988,1.1401713206321,-0.774632081349194
1761139819006591000,3.433591064453125,0.8732926543265581,1.3168670271873473,-0.5587643115630373
1761139819016650000,3.44364990234375,0.49493105061054227,1.3350892048373817,-0.48873310928586866
1761139819026709000,3.453708984375,0.06261106221377849,1.2674629448100925,-0.4004772816732526
1761139819036768000,3.46376806640625,-0.32271862694919107,1.2040920041397214,-0.37772758012879637
1761139819046826200,3.473826171875,-0.5919219368100166,1.1120905967906116,-0.47501054461002346
1761139819056885000,3.483885009765625,-0.6308481720536947,0.9666597970709204,-0.5719146293088794
1761139819066944000,3.493944091796875,-0.5135059872210026,0.687780604109168,-0.6070201372206211
1761139819077003000,3.5040029296875,-0.32249943124055863,0.3435425115302205,-0.613190131092444
1761139819087061200,3.514061279296875,-0.12432780593633651,0.11183277376145123,-0.6500283810809254
1761139819097120000,3.5241201171875,0.1369593239724636,0.032224984039366245,-0.6416301897656173
1761139819107179300,3.53417919921875,0.4003846349537372,0.01821194851696491,-0.5340542331984266
1761139819117238000,3.544238037109375,0.672157503041625,0.009857669408619403,-0.3446121865883469
1761139819127296000,3.5542958984375,0.9597925416499375,-0.016449615019559858,-0.18119619631227105
1761139819137355000,3.56435498046875,1.2495809588998554,-0.06083616149574518,-0.07571982410652563
1761139819147414000,3.5744140625,1.5030723203659058,-0.16422843917012214,-0.03808814958487637
1761139819157472300,3.58447216796875,1.6941466808855532,-0.20142507414221764,-0.10073160709775984
1761139819167531000,3.594531005859375,1.6447721168637275,-0.3158963797137141,-0.23719447105647995
1761139819177590000,3.604590087890625,1.3005220415860415,-0.4768117488130927,-0.37584523698091504
1761139819187649000,3.61464892578125,0.8324246373653411,-0.47938481417149303,-0.4862819532740861
1761139819197707300,3.624707275390625,0.4616863681346178,-0.3659755848735571,-0.43011962880827487
1761139819207766000,3.63476611328125,0.13348901751339434,-0.31796178781092166,-0.21746731393728405
1761139819217825300,3.6448251953125,-0.19140812251865863,-0.26533202138543127,-0.04640418817522004
1761139819227884000,3.654884033203125,-0.3349906640231609,-0.16648323235958815,0.024883316039666533
1761139819237942000,3.66494189453125,-0.3234668149679899,-0.1053510105267167,0.06162069946955889
1761139819248001000,3.6750009765625,-0.19225275664925573,-0.1435690975010395,0.08051211815066635
1761139819258060800,3.685060791015625,0.08738426894247531,-0.23662030616402624,0.18766338303238153
1761139819268118500,3.695118408203125,0.29504502260386944,-0.3361293126642704,0.26515286542624233
1761139819278177800,3.705177734375,0.38990006581842895,-0.3776344584852457,0.2430987814631313
1761139819288236500,3.715236572265625,0.4194458937764168,-0.39885026499330994,0.13307714877687393
1761139819298295800,3.7252958984375,0.4122866696715355,-0.44247547170817847,-0.021656536012887955
1761139819308353500,3.735353515625,0.4264385291427374,-0.5085241071552038,-0.13203870910722762
1761139819318412800,3.745412841796875,0.4704769928336143,-0.5092921689182519,-0.17936404898166655
1761139819328471600,3.755471435546875,0.5389899725675582,-0.47198330574333663,-0.1717547430217266
1761139819338529500,3.765529541015625,0.5186673155069351,-0.41641719360500573,-0.1645936374870129
1761139819348588800,3.7755888671875,0.4671270978838205,-0.351025853022933,-0.1648134359838441
1761139819358647600,3.7856474609375,0.4436392547905445,-0.3311424641624093,-0.1910463948004879
1761139819368706800,3.795706787109375,0.4545785819560289,-0.3575912028878927,-0.1552229113451205
1761139819378764500,3.8057646484375,0.4644377126693725,-0.38815702154338355,-0.08032706217365339
1761139819388823800,3.81582373046875,0.44015901145935055,-0.4043447707563638,-0.0327326960994862
1761139819398882600,3.825882568359375,0.44358314068913457,-0.4613686804875731,0.006431695281621068
1761139819408941800,3.83594189453125,0.3435802131921053,-0.579476004473865,0.03498990044174716
1761139819418999600,3.84599951171875,0.0899514890819788,-0.648800008329749,-0.06852888968912885
1761139819429058800,3.856058837890625,-0.19661679707765578,-0.6398375341951846,-0.2502316838166676
1761139819439117600,3.86611767578125,-0.4960270291537046,-0.6183455410942434,-0.34524975383952256
1761139819449175600,3.876175537109375,-0.7337152568101882,-0.6209896258622407,-0.3044975087450817
1761139819459234800,3.88623486328125,-0.8689841434776783,-0.586272240485251,-0.17598103721356018
1761139819469293600,3.89629345703125,-0.9031488634079694,-0.5175877035766839,-0.03263464255249127
1761139819479352800,3.906352783203125,-0.8258464280188084,-0.47880642976164817,0.13641210188586264
1761139819489410600,3.91641064453125,-0.6851251211643219,-0.48495939943343397,0.30918292661495506
1761139819499469800,3.9264697265625,-0.5535901603281498,-0.5895400101095437,0.41797224102728064
1761139819509528600,3.936528564453125,-0.5007961432516574,-0.6810673702061176,0.4185044482078403
1761139819519587800,3.946587890625,-0.48574412007033824,-0.721699532584846,0.30774167829807847
1761139819529645600,3.9566455078125,-0.5915343987971544,-0.8210369819104671,0.11069449044652283
1761139819539704800,3.966704833984375,-0.784449418747425,-0.9755234870061278,-0.007265607088804245
1761139819549763600,3.976763671875,-0.8163789269715547,-1.1366209346741438,-0.05900737516600638
1761139819559821600,3.986821533203125,-0.552336360874772,-1.1931401097536087,0.028126206951029596
1761139819569880800,3.996880859375,-0.21585048985779284,-1.097768641449511,0.17736670115198938
1761139819579939600,4.006939697265625,-0.011005962660908699,-0.9847475346863269,0.293409749552235
1761139819589998800,4.016998779296875,0.09938274977207183,-0.8690086933970451,0.3625941257417202
1761139819600056600,4.027056640625,0.23110475761294363,-0.7409428699761629,0.4154793282330036
1761139819610115800,4.03711572265625,0.2541758365988731,-0.6806707721039652,0.36907201651893556
1761139819620174600,4.047174560546875,0.12860942877829074,-0.6140028357148171,0.2847659859780222
1761139819630233900,4.05723388671875,-0.09504793543815612,-0.5259904980018735,0.13749993365518748
1761139819640291600,4.06729150390625,-0.3249696207463741,-0.3852595465362072,-0.048588382080197334
1761139819650350600,4.0773505859375,-0.7048135719746351,-0.2125868118867278,-0.21432686048708854
1761139819660409600,4.08740966796875,-1.1306535507023334,0.007375789465010166,-0.35378377342894674
1761139819670467600,4.097467529296875,-1.590516210541129,0.25405454830676316,-0.4100380870271474
1761139819680526800,4.10752685546875,-2.1462188329786063,0.40010611027330156,-0.3404237219225615
1761139819690585600,4.117585693359375,-2.4703099173247813,0.7311544664114713,-0.35875673953592774
1761139819700644600,4.12764453125,-2.5823551647931335,1.0139341739431023,-0.3421067796386778
1761139819710702600,4.13770263671875,-2.4199732302725314,1.1671893836781382,-0.3389182127304375
1761139819720761900,4.147761962890625,-2.136987478774786,1.260320964100957,-0.30959742569997906
1761139819730820600,4.157820556640625,-1.7541916920036076,1.3105574056491256,-0.3526448325268924
1761139819740878600,4.167878662109375,-1.332272686111927,1.3305895553305744,-0.4876618633251637
1761139819750937600,4.1779375,-0.8664601779580116,1.2780237940520047,-0.5912924067348242
1761139819760996600,4.18799658203125,-0.5149462491571903,1.1439084613338113,-0.5827222198534756
1761139819771055600,4.1980556640625,-0.22480653425157068,1.0636278869166969,-0.5736603769976646
1761139819781113600,4.208113525390625,-0.04610708665847778,1.0191729513794183,-0.5083790726613253
1761139819791172900,4.2181728515625,0.0746358465284109,0.9575520692467689,-0.3598802636731416
1761139819801231600,4.228231689453125,0.18149170866012573,0.9416896064653992,-0.17506335611306129
1761139819811290600,4.23829052734375,0.3067407210946083,0.982298680229485,-0.0689515172816813
1761139819821348600,4.2483486328125,0.409299762815237,1.0120084665775297,-0.016064122833311555
1761139819831407900,4.258407958984375,0.4323714263230562,1.0287100105315445,-0.04557838660925626
1761139819841466600,4.268466552734375,0.41323242608904837,1.043222812269628,-0.15570099545195698
1761139819851524600,4.278524658203125,0.3837596633672714,1.0638619879335165,-0.34875666598193344
1761139819861583600,4.28858349609375,0.31245442256629463,1.0790832302019,-0.500491022825241
1761139819871642600,4.298642578125,0.24714579183161256,1.095368010048568,-0.5960413548275828
1761139819881701600,4.30870166015625,0.20437047994434832,1.0809390872016549,-0.6389415352035314
1761139819891759600,4.318759521484375,0.1660205832839012,1.0690841064959764,-0.7004035004474223
1761139819901819000,4.32881884765625,0.20481939275562763,1.084663368421793,-0.7208634470868855
1761139819911877600,4.338877685546875,0.3462994090229273,1.1279951451480388,-0.646043037771806
1761139819921936600,4.3489365234375,0.49645373013317584,1.1670467603370547,-0.5201640568707138
1761139819931994600,4.35899462890625,0.619001082393527,1.211820844826102,-0.3458301840759814
1761139819942054000,4.369053955078125,0.6976555169135332,1.2236857624039053,-0.18094225808382033
1761139819952112600,4.379112548828125,0.9177981510072946,1.1864528870746494,-0.12037709554918109
1761139819962170600,4.389170654296875,1.2806798615187405,1.1472133480980993,-0.12017105158306658
1761139819972229600,4.399229736328125,1.7254080805897711,1.037263903865218,-0.1808474924724549
1761139819982288600,4.40928857421875,2.0940783113747834,0.8191001686289906,-0.14901735296957194
1761139819992347600,4.41934765625,2.3554233089506624,0.5298033342882991,-0.15612616206146776
1761139820002405600,4.429405517578125,2.4216052153885363,0.24237463190704583,-0.18222550282739103
1761139820012464600,4.439464599609375,2.3601678731292486,0.15298369931727646,-0.2467625646676868
1761139820022523600,4.449523681640625,2.2467980990588665,0.21289631622731683,-0.27025267278328535
1761139820032582000,4.459581787109375,2.060033418431878,0.28428952757269144,-0.27067981215417386
1761139820042640600,4.469640625,1.7047510770082472,0.2922507157102227,-0.17246932103186846
1761139820052700000,4.479699951171875,1.0995154851168394,0.28767069444358345,-0.06701762660965323
1761139820062758700,4.489758544921875,0.4376525815963745,0.3049123366236687,-0.03167356070168316
1761139820072816600,4.499816650390625,-0.15864157894849776,0.38347996964305636,-0.025618279250711203
1761139820082875600,4.509875732421875,-0.5641361042618751,0.5034253227114677,-0.07127104627043009
1761139820092934700,4.5199345703125,-0.839804810744524,0.6016887130647898,-0.01575629899315536
1761139820102993700,4.52999365234375,-0.9577548983424902,0.6776900027275085,0.07157726267538965
1761139820113051600,4.5400517578125,-0.9858791690647601,0.6666244188338518,0.23379187780506908
1761139820123110700,4.550110595703125,-0.9660346509099006,0.6345210153475404,0.24724413763955233
1761139820133169700,4.560169677734375,-0.8623439748108387,0.5561591340333223,0.1881803195785731
1761139820143227600,4.5702275390625,-0.6576210281670093,0.3759562961399555,0.2152297276109457
1761139820153286700,4.58028662109375,-0.5193430228114128,0.1931502900108695,0.18069917004294692
1761139820163345700,4.590345703125,-0.3984615579366684,0.07477642404288053,0.09409574927985667
1761139820173404700,4.60040478515625,-0.28905718036592004,-0.0372352134168148,0.029968108490668235
1761139820183462700,4.610462646484375,-0.15612345864772795,-0.13220160805135964,0.0010256532533094286
1761139820193521700,4.620521728515625,-0.037484219741821284,-0.21611060209870336,-0.011651932414248585
1761139820203580700,4.63058056640625,0.03441547982096672,-0.31542876220196486,-0.00479022995121777
1761139820213639700,4.6406396484375,0.048937341648340224,-0.3645081426694989,-0.03710541302468628
1761139820223697700,4.65069775390625,0.02353402032256126,-0.4157113834232092,-0.15532660918161273
1761139820233756700,4.660756591796875,0.09442308153808117,-0.4328498574897647,-0.1795708601327613
1761139820243815700,4.670815673828125,0.2599316236466169,-0.36017829677164553,-0.11721249403841792
1761139820253874000,4.6808740234375,0.528270425632596,-0.3288675049677491,0.052623555880412454
1761139820263932700,4.6909326171875,0.7580278602898121,-0.3233522486776113,0.26213191016986964
1761139820273992000,4.700991943359375,0.8533627959758043,-0.3346495955005288,0.3950349444888532
1761139820284050700,4.71105078125,0.8130296165436506,-0.33331542428731914,0.42781014628950503
1761139820294108700,4.721108642578125,0.7071954986751079,-0.313281813301146,0.4203496376831084
1761139820304167700,4.731167724609375,0.592247515502572,-0.33825229616761204,0.5182044472355395
1761139820314226700,4.741226806640625,0.4284527915745973,-0.40252047793865203,0.5545753354405984
1761139820324284700,4.75128466796875,0.23062018896639347,-0.4922206226080656,0.6097772173764183
1761139820334343700,4.76134375,0.07217500937283039,-0.5203521998539566,0.7211225364144891
1761139820344402700,4.771402587890625,0.011812602868676185,-0.5019815536439418,0.9248655321102589
1761139820354461700,4.781461669921875,0.04593406817913055,-0.4698179444029927,1.1295170940183104
1761139820364520000,4.79152001953125,0.1539648193091154,-0.4889478845477104,1.3252706983953713
1761139820374578700,4.80157861328125,0.29368776277601716,-0.5095113646268844,1.4244674240760504
1761139820384638000,4.811637939453125,0.5013216284304857,-0.5289981553852557,1.4838891887292265
1761139820394696700,4.82169677734375,0.5760562591582536,-0.6052642334640026,1.3988063285969197
1761139820404754700,4.831754638671875,0.4342974259495735,-0.6609384821519255,1.1460254534877836
1761139820414813700,4.841813720703125,0.19386428349912166,-0.6954109528571367,0.7998368113629519
1761139820424872700,4.851872802734375,-0.08698328692615032,-0.73201488263309,0.47398949446659533
1761139820434930700,4.8619306640625,-0.4205284283161163,-0.8469988139018416,0.24283874228745697
1761139820444989700,4.87198974609375,-0.8815817592442036,-0.9963783512473106,0.017307693153619765
1761139820455048700,4.882048583984375,-1.2749714207440614,-1.0531006476834415,-0.1899470369901508
1761139820465107700,4.892107666015625,-1.5548773264050484,-0.95326050953269,-0.4948383308257907
1761139820475166000,4.902166015625,-1.6522306161761282,-0.8600929810136556,-0.6246351427577436
1761139820485224700,4.912224609375,-1.5287503669798372,-1.0098363832354544,-0.41958559450805183
1761139820495284000,4.922283935546875,-1.1606015297204255,-1.1928329435005782,-0.17575787771586326
1761139820505341700,4.932341796875,-0.7822393414825201,-1.1228425846904515,-0.034985753989592194
1761139820515400700,4.942400634765625,-0.528994063732028,-1.0242249740719795,0.07272424075342715
1761139820525459700,4.952459716796875,-0.283264568439126,-1.026706269493699,0.20692405515098944
1761139820535518700,4.962518798828125,0.0050648821741342545,-1.0343281426742672,0.25458573257401584
1761139820545576700,4.97257666015625,0.30413141537904737,-0.9005866117045283,0.15681171490652485
1761139820555635700,4.9826357421875,0.6584019494116305,-0.661426265668869,0.029831001574918626
1761139820565694700,4.99269482421875,1.008752095130086,-0.4749576453790068,-0.0004304455728270113
1761139820575752700,5.002752685546875,1.1570376997590064,-0.30276567998379467,-0.045127373172435904
1761139820585811700,5.012811767578125,0.9293646701604127,-0.11065554667562245,-0.3280926481377333
1761139820595870700,5.02287060546875,0.4200117109656334,0.20487959851026533,-0.889199540771544
1761139820605929700,5.0329296875,-0.12787234667539596,0.4916732178583741,-1.301358200149238
1761139820615987700,5.04298779296875,-0.7512702027231455,0.6020978783875703,-1.4125908160604537
1761139820626046700,5.053046630859375,-1.4369897826492786,0.6879881093800068,-1.3645574375145137
1761139820636105700,5.063105712890625,-2.1482956392526624,0.8007381441168486,-1.0699085015561431
1761139820646164700,5.073164794921875,-2.916675382208824,0.8545715872436761,-0.6650798928055912
1761139820656222700,5.08322265625,-3.3966526093155145,1.008881420598179,-0.3903262188086286
1761139820666281700,5.09328173828125,-3.240681126359105,1.3980806446708738,-0.07511219533588737
1761139820676340700,5.1033408203125,-2.7483015137970446,1.651993446419388,0.1574057170106098
1761139820686398700,5.113398681640625,-2.0206272907167673,1.6027882476150987,0.10572587172109633
1761139820696457700,5.123457763671875,-1.337104928573966,1.2924340121984481,-0.19488993675243108
1761139820706516700,5.133516845703125,-0.6168523799270391,1.0747083761185408,-0.6545332912847399
1761139820716575700,5.14357568359375,0.17182780825793742,0.9322387642920017,-1.0489525150280445
1761139820726633700,5.1536337890625,0.890184167894721,0.6519885752379894,-1.2563660889953374
1761139820736692700,5.163692626953125,1.478196237784624,0.41259646627306934,-1.446450269433856
1761139820746751700,5.173751708984375,1.8752941061526536,0.33169249926060435,-1.5833995104037224
1761139820756809700,5.183809814453125,1.8767922357559204,0.29050124169439073,-1.6016061982236802
1761139820766868700,5.19386865234375,1.3557780648618936,0.35309622955620285,-1.5234195273458957
1761139820776927700,5.203927734375,0.5754693991810083,0.5612912362247705,-1.4055743614271283
1761139820786986800,5.21398681640625,-0.14608955588936806,0.7972855194449424,-1.2743766697213053
1761139820797044700,5.224044677734375,-0.7152583936214446,0.9411945164248346,-0.9883778540126978
1761139820807103700,5.234103759765625,-1.0751052664816378,1.0449798850700258,-0.7392067668985575
1761139820817162800,5.244162841796875,-1.254921735405922,1.1269172867834567,-0.6581918137922883
1761139820827221800,5.2542216796875,-1.2494956187039612,1.1290198120206594,-0.6337316916007548
1761139820837279700,5.26427978515625,-1.1256553040236235,1.0381398099169135,-0.5043314047057181
1761139820847338800,5.2743388671875,-0.8994576076745986,0.8454819795981049,-0.44239440582860257
1761139820857397800,5.284397705078125,-0.5467728815287352,0.6982774482041597,-0.41060890918504445
1761139820867455700,5.294455810546875,-0.12181494633257388,0.5195265626847744,-0.39555041973032057
1761139820877514800,5.3045146484375,0.25817045919299125,0.37721506402939553,-0.4371505503583699
1761139820887573800,5.31457373046875,0.5735241103321314,0.242883458212018,-0.5635073048390448
1761139820897632800,5.3246328125,0.8295984740287065,0.1108016771480441,-0.7374157918285578
1761139820907690800,5.334690673828125,1.0357394707769154,-0.014106559024751185,-0.8737894979327917
1761139820917749800,5.344749755859375,1.153698326203227,-0.14009411486685275,-0.9054330288223922
1761139820927808800,5.354808837890625,1.2113958974123,-0.1383507783308625,-0.8020293529711663
1761139820937867500,5.364867431640625,1.20007546197474,0.008665244753658772,-0.6734617905732244
1761139820947925800,5.37492578125,1.163556872394681,0.19600246457159518,-0.5813001511611045
1761139820957984800,5.38498486328125,1.1600398041844366,0.2611401226535439,-0.4232549672031775
1761139820968043800,5.395043701171875,1.156400570899248,0.2057832693517208,-0.23249785593915728
1761139820978101800,5.405101806640625,1.2373901703685521,0.15861936711668967,-0.13776010982817968
1761139820988160800,5.415160888671875,1.3368775495588778,0.08518909698575734,-0.11685622794665396
1761139820998219800,5.4252197265625,1.4100211117029189,-0.04654167868345976,-0.12614174175681545
1761139821008278800,5.43527880859375,1.376347974681854,-0.1658700688973069,-0.22745553265670312
1761139821018336800,5.445336669921875,1.2472609915196895,-0.2144797860264778,-0.3555753695534542
1761139821028395800,5.455395751953125,1.0864426530539988,-0.2088543473601341,-0.4395450808120891
1761139821038454800,5.465454833984375,0.8559265089839696,-0.2160743617415428,-0.4372901780247688
1761139821048512800,5.4755126953125,0.6450543920606374,-0.24065058459341523,-0.42228042308259756
1761139821058571800,5.48557177734375,0.5169634341984987,-0.20198563063442707,-0.4149197946541011
1761139821068630800,5.495630859375,0.49448272232115265,-0.14915186606943606,-0.39346250754036005
1761139821078689800,5.505689697265625,0.5439432110607624,-0.17563626063019036,-0.3812219615831971
1761139821088747800,5.515747802734375,0.5395528671473264,-0.2901829695254564,-0.3375430884523317
1761139821098806500,5.525806640625,0.4016536319762468,-0.37170536069720983,-0.3635120443042367
1761139821108865800,5.53586572265625,0.337810397619009,-0.36525574616640805,-0.40421197468955067
1761139821118924500,5.545924560546875,0.3068926967859268,-0.34824323656708,-0.41436066293399776
1761139821128982800,5.555982666015625,0.2578600780695677,-0.37915684574693437,-0.3823549111358821
1761139821139041500,5.56604150390625,0.24952654948830602,-0.38604806656539437,-0.3717255632350221
1761139821149100800,5.576100830078125,0.23348142361640928,-0.443291464266181,-0.4431288941156119
1761139821159158800,5.58615869140625,0.20855799476206302,-0.49253421860188246,-0.5712981779109686
1761139821169217800,5.5962177734375,0.16506488999426364,-0.5231561513587832,-0.6499358804918826
1761139821179276800,5.60627685546875,0.09735738142430782,-0.5093155497938394,-0.7107587441146374
1761139821189335800,5.616335693359375,0.046612698093056674,-0.4180941869065165,-0.7675104127757251
1761139821199393800,5.626393798828125,-0.03146072166860103,-0.29543752905279397,-0.8133402168627828
1761139821209452500,5.63645263671875,-0.19802549483180046,-0.22014409539848565,-0.8662390825532377
1761139821219511800,5.64651171875,-0.34273148740828036,-0.15136457368284462,-0.9709578595910221
1761139821229569800,5.65656982421875,-0.45330607780218124,-0.09508943649232388,-1.0749573824435472
1761139821239628800,5.66662890625,-0.4730091416597366,-0.08707242651432752,-1.0923785459090023
1761139821249687600,5.6766875,-0.4181640372723341,-0.11980711364150047,-1.046919328700006
1761139821259746000,5.68674609375,-0.41665597079694267,-0.22557108888328073,-1.0262874595597387
1761139821269804000,5.696803955078125,-0.3924170170754194,-0.4071437538251281,-0.8578079388163984
1761139821279863000,5.706863037109375,-0.2596791101902723,-0.5910691193729639,-0.6739607530713081
1761139821289922000,5.716922119140625,-0.03995557829141617,-0.6679840167492628,-0.560767029687576
1761139821299980300,5.726980224609375,0.22553075687289237,-0.8068260857284069,-0.39038481712806966
1761139821310039000,5.7370390625,0.4621873033940792,-1.0878551502004266,-0.09319427039548754
1761139821320098000,5.74709814453125,0.8087053236037492,-1.3842942575111985,0.10165898760836571
1761139821330157000,5.757156982421875,1.2257400645852088,-1.5110291245892642,0.02645626444481313
1761139821340215300,5.76721533203125,1.832320056822896,-1.4300538459062575,-0.16547540702391414
1761139821350274000,5.777274169921875,2.696377265292406,-1.136538224826753,-0.29531594849973913
1761139821360333300,5.787333251953125,3.1871623021394013,-0.8254618126153945,-0.30646899148114026
1761139821370392000,5.79739208984375,2.721761297395825,-0.747735014334321,-0.33812450506947933
1761139821380450000,5.807449951171875,1.1693600057154894,-0.738493723258376,-0.9226618845861405
1761139821390509000,5.817509033203125,-0.5811860232621431,-0.4777089899137616,-1.68052454437688
1761139821400568000,5.827568115234375,-1.945857588675618,0.05543839410543441,-2.1855441505424675
1761139821410626000,5.8376259765625,-2.7353496777653694,0.6712450643718242,-2.223648694139719
1761139821420685000,5.84768505859375,-3.3032284756869075,0.9386521384656429,-1.7885918281249702
1761139821430744000,5.857744140625,-3.584818973433971,1.087263029526174,-1.3583847402289508
1761139821440803000,5.867802978515625,-3.672221362555027,1.2662079763129352,-0.938567967313528
1761139821450861300,5.877861328125,-3.775316410848498,1.351422500000894,-0.679487845929712
1761139821460920000,5.887920166015625,-3.6274469858050344,1.4894661120787263,-0.5837800948759541
1761139821470979300,5.897979248046875,-3.113620096066594,1.6028940460771322,-0.518993734449707
1761139821481037000,5.908037109375,-2.296794009849429,1.5734730135425925,-0.5146771498922258
1761139821491096000,5.918095947265625,-1.5556956570506095,1.3579232601970432,-0.4944588665215298
1761139821501155000,5.928155029296875,-1.0306950468689202,1.147034484399855,-0.5448616410799324
1761139821511214000,5.938214111328125,-0.7113660623580217,1.0866527886733413,-0.5954898584246635
1761139821521272000,5.94827197265625,-0.6125000299364328,1.1574766756981612,-0.6463420207183808
1761139821531331000,5.9583310546875,-0.6666045450896024,1.2840432004719973,-0.6441041786637157
1761139821541390000,5.96839013671875,-0.8166419618219136,1.3919035634711383,-0.5231518405098468
1761139821551449000,5.978448974609375,-0.933198549234867,1.4610750071138143,-0.3978676836967468
1761139821561507000,5.988507080078125,-0.9378577732175588,1.4500152684390544,-0.336683001024276
1761139821571566000,5.998566162109375,-0.8055565041840076,1.3923551066309212,-0.31202092651985586
1761139821581625300,6.008625244140625,-0.596326309248805,1.3359937524616718,-0.3423065399944782
1761139821591683000,6.01868310546875,-0.3984434377580881,1.2924050783649086,-0.3951666811097413
1761139821601742000,6.0287421875,-0.27920155678391456,1.2502046437561511,-0.4670452648192644
1761139821611801000,6.038801025390625,-0.24266309345960616,1.2451032289639115,-0.6005144816536456
1761139821621860000,6.048860107421875,-0.3350742506533861,1.2362129432827234,-0.6678280224699527
1761139821631918000,6.05891796875,-0.4829653030067682,1.304752226501703,-0.6916223011638969
1761139821641977000,6.06897705078125,-0.6568956365019083,1.4220187157496809,-0.6287913125891238
1761139821652036000,6.0790361328125,-0.8965630552768706,1.520039529518783,-0.4498015768125653
1761139821662095000,6.08909521484375,-1.0765981353878975,1.6344754715159535,-0.2741144627779722
1761139821672153000,6.099153076171875,-1.0736281796663998,1.7758347840130329,-0.19553543158173559
1761139821682212000,6.109212158203125,-0.7963532070308923,1.8666236007019876,-0.13816585021801292
1761139821692271000,6.11927099609375,-0.23229425965845585,1.748230153250694,-0.07860781889930367
1761139821702329000,6.1293291015625,0.3355804466098547,1.540429698857665,-0.06070625150576234
1761139821712388000,6.13938818359375,0.751079064065218,1.3670862253397702,-0.02754384048581123
1761139821722447000,6.149447021484375,0.954219125431776,1.1727744903340935,-0.022629034306854007
1761139821732506000,6.159506103515625,0.9430161788940429,1.0314853204637766,-0.040942543502151964
1761139821742564000,6.169564208984375,0.7334983991891145,0.9625590837538242,-0.05675977890230715
1761139821752623000,6.179623046875,0.4627297397077083,1.0176333207219839,-0.08571984286159276
1761139821762682000,6.18968212890625,0.2436713937193155,1.113110002966225,-0.09455028811432421
1761139821772740000,6.199739990234375,0.2226180842965841,1.0948784729659558,-0.014209215681627392
1761139821782799000,6.209799072265625,0.3864268367499113,1.0215247752025722,0.13139518703930078
1761139821792858000,6.219858154296875,0.607204846137762,0.9436740582808851,0.23983671092726289
1761139821802917000,6.229917236328125,0.7480752060741186,0.871304695379734,0.33208873203657563
1761139821812975000,6.23997509765625,0.6959791081339121,0.8229469071850181,0.34692725859768686
1761139821823034000,6.2500341796875,0.5590870041787624,0.7601175260454416,0.35312925504297016
1761139821833093000,6.260093017578125,0.40827918759584425,0.6574681756928563,0.4356635266710073
1761139821843151000,6.270151123046875,0.30892507939636704,0.5681029620662331,0.5639752146117389
1761139821853210000,6.280210205078125,0.27456220654547214,0.502816835424304,0.6375591409344226
1761139821863269000,6.29026904296875,0.3367822236150503,0.43903877525776625,0.6882954948287456
1761139821873328000,6.300328125,0.48838732805550095,0.40454672306925055,0.6968412779211998
1761139821883386000,6.31038623046875,0.5907119764983654,0.3225327489882707,0.7421032920576631
1761139821893445000,6.320445068359375,0.5433721331745386,0.24346856462359426,0.8257148375283926
1761139821903504100,6.330504150390625,0.39295769982337947,0.23975568158030508,0.8035119196791202
1761139821913563100,6.340563232421875,0.2955044568091631,0.25227760176211594,0.7974036659318954
1761139821923621000,6.35062109375,0.3202946146726608,0.2386445054680109,0.8583086548801511
1761139821933680000,6.36068017578125,0.36886604561805725,0.1497974704965949,0.9461546230502426
1761139821943739100,6.3707392578125,0.45093525701761245,0.04107084605693817,0.9454975473809987
1761139821953797000,6.380797119140625,0.6192898362070322,-0.02515197691321373,0.9021975540325045
1761139821963856100,6.390856201171875,0.7791817074775695,-0.10363426973670721,0.8541958127338438
1761139821973915100,6.4009150390625,0.8288391800940036,-0.19578765277713536,0.9066231884550303
1761139821983974100,6.41097412109375,0.762791129168868,-0.2610068516626954,0.9397841381702572
1761139821994032000,6.4210322265625,0.6281991188496351,-0.3518760401114821,0.8762164328187704
1761139822004091100,6.431091064453125,0.48295478161275385,-0.4113613715201616,0.8112223479259759
1761139822014150100,6.441150146484375,0.4528542423814535,-0.48743017346113915,0.7533432826701552
1761139822024208100,6.4512080078125,0.4225122956097126,-0.5428054392024875,0.8187477019295096
1761139822034267100,6.46126708984375,0.28898002347648144,-0.6445043569624423,0.7943230894427746
1761139822044326100,6.471326171875,0.2112941417276859,-0.6216498433366417,0.6995503907494246
1761139822054385200,6.48138525390625,0.17912147239744663,-0.6194140471085906,0.6877878375675529
1761139822064443100,6.491443115234375,0.2042103209465742,-0.6629273178815841,0.7508546076595782
1761139822074502000,6.501501953125,0.25792086834609507,-0.7121072361141443,0.8135008142519742
1761139822084561200,6.51156103515625,0.30793548383712765,-0.7543371890783309,0.8375688683860003
1761139822094619100,6.521619140625,0.31210137134492394,-0.7850023764550685,0.7829523120574653
1761139822104678100,6.53167822265625,0.3415975149422884,-0.8609910988971591,0.7338740275684744
1761139822114737200,6.541737060546875,0.32520284498035906,-0.9368979882746934,0.6497647617086768
1761139822124796200,6.551796142578125,0.35545886703431606,-0.9261959769964218,0.5787141532558947
1761139822134854100,6.561854248046875,0.39627135441601274,-0.9060428312838077,0.5923466650281101
1761139822144913200,6.5719130859375,0.4231768969982862,-0.8179284945011138,0.6280217164561153
1761139822154972200,6.58197216796875,0.3862047184318304,-0.701684334038198,0.6088560474108904
1761139822165030000,6.59202978515625,0.26579905437529083,-0.630144407698512,0.6511737517237662
1761139822175089200,6.602089111328125,0.07523498146533966,-0.5834422777563333,0.6746142485439777
1761139822185148000,6.61214794921875,-0.10819733986854553,-0.5538920658841728,0.6587741437248885
1761139822195207200,6.622207275390625,-0.1614291638404131,-0.5016644505187868,0.5731633141957223
1761139822205265200,6.63226513671875,-0.11129998205900192,-0.4856117258623242,0.41581922771185637
1761139822215324200,6.64232421875,-0.07200257541537285,-0.5420756636232137,0.3536397618483752
1761139822225383200,6.652383056640625,-0.019313772279024123,-0.6386173447504639,0.3793160548966378
1761139822235441200,6.662441162109375,0.10006254872977734,-0.7420026081621647,0.45017537856101986
1761139822245500200,6.672500244140625,0.14322832123935222,-0.7839145812183618,0.5523944477375596
1761139822255559200,6.68255908203125,-0.09708148709237575,-0.6574956482216715,0.6717961954485625
1761139822265618200,6.6926181640625,-0.5098568170636892,-0.5163052625507116,0.7333136172067374
1761139822275676000,6.702676025390625,-0.7076525947928428,-0.4135197185978293,0.738003309392929
1761139822285735200,6.712735107421875,-0.6341349386394024,-0.3080003657668829,0.7203374504514038
1761139822295794000,6.7227939453125,-0.3044710225969553,-0.3251248113080859,0.614312340055406
1761139822305853200,6.732853271484375,0.13218319561183453,-0.4282207363843918,0.4849303925346583
1761139822315911200,6.7429111328125,0.5281634581267833,-0.4865162734866142,0.3280426715161651
1761139822325970200,6.75297021484375,0.8173866427093743,-0.5387377513721585,0.00930785350613296
1761139822336029000,6.76302880859375,0.9152595724403858,-0.6656736939802765,-0.43080384821277107
1761139822346087200,6.773087158203125,0.8450847969740629,-0.706704792548716,-0.9179751150093972
1761139822356146200,6.783146240234375,0.6340361544400454,-0.6176683724850416,-1.3327218911841512
1761139822366205200,6.793205078125,0.3165916685014963,-0.3858113352000713,-1.5938412633106112
1761139822376263200,6.80326318359375,-0.03634381753504276,-0.08270049504041671,-1.5479529339693485
1761139822386322000,6.813322021484375,-0.29918226853907104,0.15560937164574862,-1.3093700955606997
1761139822396381200,6.823381103515625,-0.46571723108589647,0.36501463088691233,-1.0706493099860845
1761139822406440000,6.83343994140625,-0.6693833621531724,0.47848465046137567,-0.7957049722552298
1761139822416498200,6.843498291015625,-0.9351122739017009,0.5077116217285395,-0.5372265796242282
1761139822426557200,6.85355712890625,-1.2607657852590084,0.5843059088483452,-0.44018768956456333
1761139822436616200,6.8636162109375,-1.6169821926623582,0.6324181978493929,-0.44135165531001985
1761139822446674200,6.873674072265625,-1.9884663118243215,0.7015981170594692,-0.5254649762904271
1761139822456733000,6.88373291015625,-2.1075468647569418,0.9086053752481937,-0.795891800064221
1761139822466792200,6.893792236328125,-1.9215508304148912,1.1134653922751545,-1.1240773871824146
1761139822476851000,6.903850830078125,-1.3457459156692027,1.2142597624108196,-1.2739575675264
1761139822486909200,6.9139091796875,-0.646108869549632,1.1379843319818377,-1.2567680939249695
1761139822496968000,6.923968017578125,-0.1097843167990446,1.087408575476706,-1.255847764209658
1761139822507027200,6.934027099609375,0.25730828940570355,1.1090411460921168,-1.2444510486654936
1761139822517085200,6.944085205078125,0.46273324683904643,1.229808921459317,-1.2015000879503785
1761139822527144200,6.954144287109375,0.42486148908436294,1.374627142238617,-1.1260814204812049
1761139822537203200,6.964203125,0.17457155400812624,1.4559119252622126,-1.0108896916806698
1761139822547262200,6.97426220703125,-0.053068742364645004,1.563050403727591,-0.9608424160290508
1761139822557320200,6.9843203125,-0.25218846217393875,1.6713298689216374,-0.8831524426270276
1761139822567379000,6.99437890625,-0.37875674051344393,1.7392963206887244,-0.7204002134893089
1761139822577438200,7.004438232421875,-0.4230354427009821,1.7546607708200812,-0.5256610103191808
1761139822587496000,7.014495849609375,-0.3800567171961069,1.7580989285752175,-0.40304603618271645
1761139822597555200,7.02455517578125,-0.3519885605752468,1.6803028644502163,-0.2950056404415518
1761139822607614000,7.034614013671875,-0.2502466804563999,1.543006855869293,-0.22620903972694648
1761139822617673200,7.044673095703125,-0.007564297774434089,1.459337515796721,-0.16898929689638315
1761139822627731200,7.054731201171875,0.33237902022004123,1.4014242560103536,-0.1043383263528347
1761139822637790200,7.064790283203125,0.7327174779444933,1.301250063599646,0.011421923050656913
1761139822647849000,7.074848876953125,1.1144576181828976,1.18488519936651,0.10988036105204373
1761139822657907000,7.084906982421875,1.4381231705933808,0.9939803501948714,0.14927326395940035
1761139822667966200,7.09496630859375,1.720857577678561,0.7523211730808019,0.1304492844913155
1761139822678025000,7.10502490234375,1.7747142555505035,0.43439299527853725,0.08187248325105756
1761139822688084200,7.115084228515625,1.6491647988647222,0.18472966766804455,0.022281462978199124
1761139822698142000,7.125141845703125,1.3829548256009816,0.13897972388416527,-0.1033040879342705
1761139822708201200,7.135201171875,1.1585820065915584,0.2188482103690505,-0.2232808590542525
1761139822718260000,7.145260009765625,1.0590385132998228,0.19313859957307575,-0.18426369412411003
1761139822728318200,7.155318115234375,1.0382809719532728,0.10646773959696293,-0.061892429083026945
1761139822738377200,7.165377197265625,1.0452391205281018,0.07802431992292404,0.039258755133673544
1761139822748436200,7.175436279296875,1.0580407344341278,0.08951572801321744,0.14026223797537385
1761139822758494200,7.185494140625,1.03043435010612,0.13361322841495274,0.2369690830690786
1761139822768553000,7.195552978515625,0.8666104000836611,0.14172726902663707,0.334987924076803
1761139822778612200,7.2056123046875,0.5361790068000555,0.1605044502109289,0.3231429167758673
1761139822788671000,7.2156708984375,0.1650409245967865,0.1830658261090517,0.1886042806116864
1761139822798729200,7.225729248046875,-0.20606968507766724,0.11947598199099302,0.011060067468322813
1761139822808788000,7.2357880859375,-0.43760757341086864,0.02568213826715946,-0.058126683341339226
1761139822818847200,7.24584716796875,-0.49147769528627394,-0.07742489272505045,-0.12328052537310867
1761139822828905200,7.2559052734375,-0.32295594283640383,-0.19069325224757194,-0.17662939985338597
1761139822838964200,7.265964111328125,0.03912088103294372,-0.35058161638677116,-0.20920053044930098
1761139822849023000,7.27602294921875,0.33720191033184527,-0.5590232912927866,-0.26767171637937426
1761139822859081000,7.2860810546875,0.42117841665744776,-0.7400614109665155,-0.3661061159180477
1761139822869140200,7.29614013671875,0.4636380867242813,-0.8346540038526058,-0.5319502466564998
1761139822879199000,7.306198974609375,0.45235447616577146,-0.877136470273137,-0.6342807768508791
1761139822889258200,7.31625830078125,0.4385311179965734,-0.8714172158434986,-0.6152319391183555
1761139822899316000,7.32631591796875,0.3854460090190172,-0.7975158210694789,-0.5447123322697356
1761139822909375200,7.336375244140625,0.3203261788547039,-0.7711033227011561,-0.41643834599088875
1761139822919434000,7.34643408203125,0.2565431502521038,-0.7268363109514117,-0.25419516235385087
1761139822929492000,7.356491943359375,0.20098902081251144,-0.6495800527915359,-0.18436704490073025
1761139822939551200,7.36655126953125,0.2501981651395559,-0.5746124900907278,-0.16510123994927853
1761139822949610000,7.37660986328125,0.32284722176492214,-0.5802285764068364,-0.13246091657467185
1761139822959669000,7.3866689453125,0.32406887251436706,-0.6621954964756965,-0.15807711346615105
1761139822969727000,7.39672705078125,0.27946283806860445,-0.7042848719254136,-0.19384649211410432
1761139822979786200,7.4067861328125,0.24059037883877754,-0.729918494875729,-0.20066497648991644
1761139822989845000,7.416844970703125,0.1933306150138378,-0.7090922722071409,-0.16015848631747065
1761139822999903200,7.4269033203125,0.14704057300388812,-0.6560498333275318,-0.054415882657282054
1761139823009962000,7.4369619140625,0.08817045088410377,-0.6300786489859223,0.018719386582449076
1761139823020021200,7.447021240234375,-0.02618891874551773,-0.5671250569447874,0.010288462041318416
1761139823030080000,7.457080078125,-0.13517127151191233,-0.4964224582120776,-0.007542232073098421
1761139823040138000,7.467137939453125,-0.19142799626290796,-0.5104834245294332,0.010632489706017077
1761139823050197200,7.477197265625,-0.22637597552537916,-0.489112719720602,0.029905381985381244
1761139823060256000,7.487256103515625,-0.2441080315709114,-0.4059209340319037,0.03143427205309272
1761139823070314200,7.497314208984375,-0.19943886876106262,-0.29386224256008864,0.023555245773680508
1761139823080373000,7.507373046875,-0.1267424658626318,-0.2271776472970843,0.08407609424255788
1761139823090432300,7.517432373046875,-0.122786421713233,-0.22093729160279035,0.10948518772199749
1761139823100490000,7.527489990234375,-0.10408405933082103,-0.20981997752189635,0.1389811851888895
1761139823110549200,7.53754931640625,-0.1028524717092514,-0.2235948203742504,0.16551248763129114
1761139823120608000,7.54760791015625,-0.13792963030934333,-0.24933482630848883,0.08268379963394254
1761139823130667300,7.557667236328125,-0.20775427716374395,-0.30698738933205605,-0.029455117467232048
1761139823140725200,7.567725341796875,-0.32275486730635167,-0.36369594950377937,-0.1683287140958011
1761139823150784000,7.577783935546875,-0.39957390309274193,-0.37278672619312997,-0.2077045562705025
1761139823160843000,7.587843017578125,-0.42089316997528076,-0.4230661301001906,-0.14531517398338764
1761139823170901000,7.59790087890625,-0.4950473704665899,-0.6044847735241056,-0.02341404720470309
1761139823180960300,7.607960205078125,-0.3185352037847042,-0.8308607490494847,0.15522804417796432
1761139823191019000,7.61801904296875,0.01787467938661575,-0.9566077741339802,0.21971045322157443
1761139823201077200,7.6280771484375,0.2426619244158268,-0.9237243261858821,0.10810308571383356
1761139823211136000,7.638135986328125,0.32315000410377975,-0.8402683366030455,-0.0462860964871943
1761139823221195300,7.6481953125,0.3023158903896808,-0.7868181937053799,-0.18243045081496237
1761139823231254000,7.65825390625,0.24867607013881204,-0.7457683904364705,-0.1930640730321407
1761139823241312000,7.66831201171875,0.23220599685311316,-0.7042851641863584,-0.18654950350634752
1761139823251371300,7.678371337890625,0.23806115262210367,-0.5797516065448522,-0.27121654937937856
1761139823261430000,7.688429931640625,0.29020342779159547,-0.3252107360258698,-0.3211786309655756
1761139823271488000,7.698488037109375,0.18307167132794855,-0.0127922615557909,-0.26497670514173804
1761139823281547000,7.708547119140625,-0.26551614578068256,0.29343817192912103,-0.1610701212696731
1761139823291606000,7.71860595703125,-0.8815209689676761,0.5923448383972049,-0.15521657293587923
1761139823301665000,7.7286650390625,-1.5030296502679585,0.7283969843968748,-0.08628098387569189
1761139823311723000,7.738722900390625,-1.9731763882339,0.8500365741625427,0.04007452849596738
1761139823321781800,7.74878173828125,-2.0762913102716207,1.0491220994412898,0.18950513844154773
1761139823331841000,7.758841064453125,-1.9543676428675651,1.2223399007529019,0.255345464900136
1761139823341899000,7.76889892578125,-1.53544080452919,1.2825129221647977,0.3158303287401795
1761139823351958000,7.7789580078125,-0.8478121761113405,1.1781722577244043,0.3163251265197992
1761139823362017000,7.78901708984375,-0.2903027965128422,0.9059612904801965,0.29970205462947486
1761139823372075000,7.799074951171875,0.1107604683548212,0.7524117739737033,0.2086835208378732
1761139823382134000,7.809134033203125,0.4130822039633989,0.6397662225246429,0.11960238484963774
1761139823392193000,7.819193115234375,0.5133791459709406,0.519333378200233,0.13853840985745192
1761139823402252000,7.829251953125,0.3641933776319027,0.44806817714869973,0.15812383868470786
1761139823412309800,7.839309814453125,0.14246961182653903,0.48450581044703717,0.10993161631524562
1761139823422369000,7.849369140625,-0.048339375755190844,0.5455523998230696,0.09210472159311175
1761139823432427800,7.859427734375,-0.044855040770769114,0.5785799324169755,0.15488997133001683
1761139823442486000,7.869486083984375,0.1625835945725441,0.5487190471604466,0.26615561272799965
1761139823452545000,7.879544921875,0.3944774567365646,0.49153234808295965,0.32080826328322287
1761139823462604000,7.88960400390625,0.5545031835198402,0.48624856246113773,0.2955987840291113
1761139823472662000,7.899662109375,0.7313216396719217,0.4699719659209251,0.23591025819852945
1761139823482721000,7.909720947265625,0.8353881633460521,0.40679011808186766,0.22572942125014958
1761139823492780000,7.919780029296875,0.8878203613728284,0.28386633372455833,0.24704649617560206
1761139823502839000,7.929839111328125,0.8531675656646489,0.20965338878333567,0.21370098367370663
1761139823512897000,7.93989697265625,0.7603489967137574,0.22326018159240482,0.08263707441538572
1761139823522955800,7.949955810546875,0.5742395651251078,0.2522854928076267,-0.08439546239003538
1761139823533015000,7.96001513671875,0.3254541893929243,0.23079408422857522,-0.15818857448399065
1761139823543073000,7.970072998046875,0.09588204817473887,0.23778028985410926,-0.15554419745504855
1761139823553132000,7.980132080078125,-0.13537877678275106,0.30091245333254335,-0.07947853731922805
1761139823563191000,7.99019091796875,-0.289613060683012,0.3822606569811702,0.006652516691759229
1761139823573248800,8.000248779296875,-0.32851533052921295,0.372346581210196,0.06484547020234167
1761139823583308000,8.01030810546875,-0.2052735662639141,0.2973237811908126,0.111500326936692
1761139823593366800,8.02036669921875,0.20612930631041526,0.1931774702787399,0.18650771019123494
1761139823603426000,8.030426025390625,0.586505172458291,0.054660687731206414,0.08984905162081122
1761139823613484000,8.040484130859374,0.9029729223191738,-0.04543780909478664,-0.11726853507459163
1761139823623543000,8.05054296875,1.1955600303769112,-0.2096609875679016,-0.2050651111450046
1761139823633601800,8.060601806640625,1.4358435352236032,-0.43062662848234173,-0.1785352700073272
1761139823643660000,8.070659912109376,1.5915256798446178,-0.6189741943866014,-0.04403378751575947
1761139823653719000,8.080718994140625,1.5274392843812703,-0.616018851712346,0.0861481512762606
1761139823663778000,8.090778076171874,1.1622849527627228,-0.3955959393724799,0.14148206209391354
1761139823673837000,8.100837158203126,0.6111445236742497,-0.13799889615327118,0.08045797681063413
1761139823683894800,8.110894775390625,0.13212532794475554,-0.1031508701339364,0.04811689211092889
1761139823693954000,8.1209541015625,-0.2115133374363184,-0.17232903577834366,0.13094868538081644
1761139823704012800,8.1310126953125,-0.4065571861088276,-0.15260142200142143,0.20001718010567127
1761139823714071000,8.141071044921874,-0.34541093575060366,-0.126714116550982,0.18310944605506954
1761139823724129800,8.1511298828125,-0.08025368641018867,-0.19820377400815486,0.1433754015598446
1761139823734189000,8.16118896484375,0.2837269252538681,-0.36473259907513855,0.08607895849756896
1761139823744247000,8.1712470703125,0.6001286241412163,-0.46245706024616956,0.03906962576974183
1761139823754306000,8.18130615234375,0.7528156785994767,-0.5307721793204546,-0.11336155423130839
1761139823764365000,8.191364990234375,0.7635095065712928,-0.6252353006079793,-0.14791183941308408
1761139823774424000,8.201424072265626,0.5358861613333225,-0.6608931817054748,-0.1258488049585372
1761139823784482000,8.21148193359375,0.1746960571706295,-0.5535752550199627,-0.09180577517915517
1761139823794540800,8.221540771484374,-0.15881167481839656,-0.46426966262608765,-0.015050781072303652
1761139823804600000,8.23160009765625,-0.3496183243125677,-0.38611061040759087,0.04779314004927873
1761139823814658000,8.241657958984375,-0.37617198471724983,-0.3091393066689372,0.09333747825846075
1761139823824717000,8.251717041015626,-0.23598376182615755,-0.2779386972412467,0.11874065345376729
1761139823834775800,8.26177587890625,-0.04768588028252124,-0.3196741446867585,0.04176796147562563
1761139823844834000,8.271833984375,0.1840589287996292,-0.42295623998492954,-0.052483197561651464
1761139823854893000,8.28189306640625,0.42456981266140936,-0.47103754932582376,-0.0985150270268321
1761139823864952000,8.2919521484375,0.6225766027927399,-0.4666442828029394,-0.102805198501423
1761139823875011000,8.302010986328124,0.7406868493884802,-0.542459402243793,0.009119673990271984
1761139823885068800,8.31206884765625,0.7575754403471946,-0.6095128308191895,0.1384628238705918
1761139823895128000,8.322128173828125,0.6033049160897731,-0.621446137458086,0.15326430635694413
1761139823905186800,8.332186767578126,0.2761070978999138,-0.5543512078285217,0.11660590644739567
1761139823915245000,8.3422451171875,-0.10188859511315822,-0.34712533845305443,0.1106582318230532
1761139823925304000,8.352303955078124,-0.34863398945033547,-0.14766951855719088,0.1068398425786756
1761139823935363000,8.362363037109375,-0.47920624273419377,-0.025333763220906257,0.07323644632557406
1761139823945421000,8.372421142578125,-0.5279349100679159,0.13411241010874508,0.0721481213659048
1761139823955480000,8.38247998046875,-0.6596791297405957,0.19617051461488008,0.11552554559847339
1761139823965539000,8.3925390625,-0.9204559720396995,0.1803425386250019,0.13783103790623136
1761139823975598000,8.40259814453125,-1.2014970192104577,0.1955772248968482,0.1213622980610933
1761139823985656000,8.412656005859375,-1.4434621935337781,0.15674451315551996,0.005750900810072198
1761139823995714800,8.42271484375,-1.6129945843309164,0.09942658891379832,-0.03836799857271835
1761139824005774000,8.432774169921874,-1.5773592073261737,0.14627777193784713,-0.015197852259641513
1761139824015832000,8.44283203125,-1.3227823887109755,0.24319500837922095,0.07392733293287455
1761139824025891000,8.45289111328125,-1.0350602563410998,0.2982935030058026,0.17970073359012603
1761139824035949800,8.46294970703125,-0.7678308769017458,0.2890036966130137,0.309568637996912
1761139824046009000,8.473009033203125,-0.7232347793281078,0.5324044566974043,0.29288747924380004
1761139824056067000,8.483067138671874,-0.5640022487491368,0.8037561767637729,0.24716604916835203
1761139824066125800,8.493125732421875,-0.4854571198225021,0.7176826981589197,0.26697562387399376
1761139824076185000,8.50318505859375,-0.6889531550198793,0.3394379988208413,0.26863785799778994
1761139824086242800,8.513242919921876,-0.9775842189282178,0.1051356142103672,0.30256164531167595
1761139824096302000,8.523302001953125,-1.3480109379917382,0.206571789380908,0.21493637068755925
1761139824106360800,8.53336083984375,-1.5612369245648383,0.5729100700870156,-0.4557318436443805
1761139824116419000,8.543419189453125,-1.363774324312806,0.9674076928287744,-1.4348077624350786
1761139824126478000,8.55347802734375,-1.1444026745915412,0.9849605929151177,-2.1050328361093995
1761139824136537000,8.563537109375,-0.9775210905641317,0.6882312704861163,-2.2629516537413
1761139824146595000,8.573594970703125,-0.6579518675565719,0.32352614393979306,-1.8950927393391728
1761139824156653800,8.58365380859375,-0.3325502851337194,0.05432078825235367,-1.162160887991637
1761139824166713000,8.593713134765625,-0.26213994734585283,0.05535159260481596,-0.5162383347943424
1761139824176771800,8.603771728515625,-0.2573772629886866,0.41878713760673997,-0.3425631451040506
1761139824186830000,8.613830078125,-0.13558394396603107,0.9483876427993178,-0.48607116006761786
1761139824196888800,8.623888916015625,0.255904852348566,1.0916790924027562,-0.5576241650845856
1761139824206948000,8.633947998046875,0.7177987257540226,0.9522653610154986,-0.5706709859233349
1761139824217006000,8.644006103515625,1.186805646035075,0.7532298123583198,-0.6647264031928032
1761139824227065000,8.654065185546875,1.5362112043797969,0.5916735150068998,-0.804023741658777
1761139824237123800,8.664123779296874,1.6912603117942808,0.4866249945580959,-0.9460166028190403
1761139824247183000,8.67418310546875,1.5943044969081879,0.4235717415347695,-1.0657557657908647
1761139824257240800,8.68424072265625,1.1833330014884471,0.45584465636909005,-1.1233849479388445
1761139824267299800,8.6942998046875,0.6623287674665451,0.5446349927172065,-1.070651867269352
1761139824277358800,8.70435888671875,0.10700199260413647,0.6844087895885109,-0.981247563741356
1761139824287416600,8.71441650390625,-0.3220020031124353,0.8797659419938921,-0.7667180202890187
1761139824297475800,8.724475830078125,-0.5978787993878126,1.1007000187262892,-0.5011803933288902
1761139824307534600,8.73453466796875,-0.7543301748156547,1.2265104644358158,-0.19291845401637256
1761139824317592800,8.7445927734375,-0.7219868250936269,1.2584317893534898,0.11781206736676395
1761139824327651800,8.75465185546875,-0.6112514911800623,1.1920356556430458,0.3134751439161598
1761139824337710800,8.7647109375,-0.43231238961219787,1.0142103605359791,0.4167692219130695
1761139824347769900,8.774769775390626,-0.20483283675909042,0.8017147340640425,0.34625841942541297
1761139824357827800,8.784827880859375,0.10199906975030898,0.5645829712465406,0.26273162962868807
1761139824367886800,8.794886962890626,0.396171985694766,0.2685252644687891,0.14858875229395926
1761139824377945900,8.80494580078125,0.5333288780659436,0.03332096258252859,0.025363719967752694
1761139824388003800,8.81500390625,0.6732505589753389,-0.03472410737872123,-0.09818265326730906
1761139824398062600,8.8250625,0.8029635650813579,0.005767769746482372,-0.22995178818553685
1761139824408121900,8.835121826171875,0.8826841675281524,0.04685030624121427,-0.275852100225538
1761139824418179800,8.845179931640626,0.9412596906155347,0.05073211611062288,-0.26828955601677296
1761139824428238800,8.85523876953125,0.9714788877904414,0.030370588344335554,-0.30520211335048075
1761139824438297900,8.8652978515625,0.988143606865406,-0.012679448831081389,-0.4764431346964091
1761139824448356900,8.87535693359375,0.9907710327595471,-0.087448274089396,-0.636024697908759
1761139824458414800,8.885414794921875,0.9713818571567535,-0.15023878452330827,-0.7403139244228601
1761139824468473900,8.895473876953124,0.9336305109113454,-0.21339199078977106,-0.7848904405131936
1761139824478532900,8.905532958984375,0.8927870438694954,-0.23281886805444954,-0.8672085851725191
1761139824488590600,8.915590576171875,0.8711100495904683,-0.2439317982211709,-0.8907738043509423
1761139824498649900,8.92564990234375,0.7834078007400035,-0.2764373527675867,-0.9091378746896982
1761139824508708600,8.93570849609375,0.6381143636643887,-0.3370800375178456,-0.8913520426303148
1761139824518766800,8.945766845703124,0.4551356313169002,-0.3981830332562327,-0.8861411761142313
1761139824528825900,8.955825927734375,0.2848164740562439,-0.4268678604707122,-0.8762418595209718
1761139824538884900,8.965884765625,0.24176409879326818,-0.44022769278138874,-0.7873683749340474
1761139824548944000,8.97594384765625,0.26561083832681176,-0.49211511640697714,-0.6504671378243714
1761139824559001900,8.986001953125,0.2570306415081024,-0.5407388620615006,-0.5620747878178953
1761139824569060900,8.996060791015625,0.2533925772666931,-0.5842977255418896,-0.4104881688822061
1761139824579119900,9.006119873046876,0.23133622828125952,-0.6133224522352219,-0.3175083449549973
1761139824589177900,9.016177734375,0.24322189638614652,-0.6141305537477135,-0.3532280757749453
1761139824599236600,9.026236572265624,0.29743863974213597,-0.6217591489300132,-0.38133641827572134
1761139824609296000,9.0362958984375,0.3781096747815609,-0.6326546369537711,-0.2340015932993032
1761139824619353900,9.046353759765625,0.3953063087761402,-0.6112824708402157,-0.07336706870160996
1761139824629412900,9.056412841796876,0.374944488748908,-0.5988374152868986,-0.0021794994635507465
1761139824639471900,9.066471923828125,0.2404951017707586,-0.6447697299003601,0.015228311329986899
1761139824649531000,9.07653076171875,0.04520692294836044,-0.6820576964177191,-0.02786558325346559
1761139824659588900,9.0865888671875,-0.14296587091088295,-0.6941552537076174,-0.048332215362042186
1761139824669648000,9.09664794921875,-0.2883580921858549,-0.6684194855570793,-0.1655492029124871
1761139824679707000,9.106706787109376,-0.273393162766099,-0.6193276839993894,-0.15814566692402585
1761139824689764900,9.116764892578125,-0.15643325524926185,-0.562606264346093,-0.1290342483279295
1761139824699823900,9.126823974609374,0.039833997738361354,-0.5160599094875157,-0.0988737956029363
1761139824709882600,9.136882568359376,0.27195465439558025,-0.49707916855514045,-0.05447579615097493
1761139824719940900,9.14694091796875,0.3322013255655765,-0.5356467996194958,0.01525315351029858
1761139824730000000,9.156999755859376,0.29012101020514963,-0.5903096793077885,0.07889483741344884
1761139824740059000,9.167058837890625,0.14959551818370817,-0.6103327688999474,-0.0015807298528030514
1761139824750118000,9.177117919921875,0.06879062763154506,-0.6160698512472212,-0.1376855010888539
1761139824760175600,9.187175537109376,-0.06745791772305965,-0.6616242724590004,-0.22570161992777138
1761139824770235000,9.19723486328125,-0.21759879482984543,-0.7235993748567998,-0.2781132866231725
1761139824780293600,9.207293701171874,-0.3650175534963608,-0.7808014176338911,-0.2918758545158431
1761139824790352000,9.217351806640625,-0.42345454489588735,-0.8053764714419841,-0.22971217074338346
1761139824800410600,9.22741064453125,-0.40979076120257374,-0.7411845697775483,-0.11506258599553257
1761139824810470000,9.237469970703126,-0.44442777481973167,-0.5498880909398198,0.0426403055970557
1761139824820527900,9.24752783203125,-0.46627018879354,-0.2606139068223536,0.2811146421299316
1761139824830587000,9.2575869140625,-0.6621767917752266,-0.1411645205773413,0.46513267266359176
1761139824840646000,9.26764599609375,-0.9878647899240255,-0.24410963900610802,0.47263822598811234
1761139824850705000,9.277704833984375,-1.2513000377774237,-0.38087358653694386,0.34304146667290475
1761139824860763000,9.287762939453126,-1.3209721244186161,-0.5510914753802121,0.130394704759866
1761139824870821600,9.297821533203125,-1.2627362085491418,-0.8166931074872612,-0.1020322779001668
1761139824880881000,9.307880859375,-0.9147592217028141,-1.1195961501151324,-0.3624714126775041
1761139824890939000,9.31793896484375,-0.3162128983169794,-1.4058511325418948,-0.5301167841516435
1761139824900998000,9.327997802734375,0.21004209583997724,-1.6547443525627255,-0.5043759744998068
1761139824911056600,9.338056640625,0.6259393572241068,-1.8433023463472722,-0.35819969017505643
1761139824921115000,9.348114990234375,0.8748574194252491,-1.8382421403482556,-0.2164423182711005
1761139824931174000,9.358173828125,0.9836930571973324,-1.6773393384695052,-0.20803316717036066
1761139824941233000,9.36823291015625,1.06156130977571,-1.2672782358929515,-0.4299659726165235
1761139824951292000,9.3782919921875,0.9437596907377243,-0.707931996256113,-0.6368894249793142
1761139824961349600,9.388349609375,0.2089467018187046,-0.3446265073746443,-0.5906897646665573
1761139824971409000,9.398408935546875,-0.9002741847544908,0.043646541763842105,-0.5464749214954674
1761139824981467600,9.408467529296875,-1.8676497288793323,0.4540573345609009,-0.5699919176179915
1761139824991526000,9.41852587890625,-2.7658424311846495,0.7965358701214194,-0.5718296909717843
1761139825001585000,9.4285849609375,-3.325723216089606,1.0838182958997786,-0.5799399687238037
1761139825011644000,9.438643798828124,-3.36667131254971,1.3602356287926434,-0.4913808107830584
1761139825021702000,9.448701904296875,-2.836923800101876,1.5551882920503615,-0.2968414775665849
1761139825031761000,9.458760986328125,-1.9210989949941635,1.6549904362782835,-0.07823222705256193
1761139825041820000,9.46881982421875,-0.8800082263171672,1.5966966527417301,0.08873601234499365
1761139825051879000,9.47887890625,-0.07025836209654808,1.4070906112089752,0.18038528178818522
1761139825061937000,9.48893701171875,0.4150280773341655,1.162513793082535,0.19685908140093086
1761139825071995600,9.49899560546875,0.578726355150342,0.8825885981991887,0.2951338699311018
1761139825082055000,9.509054931640625,0.5496867231488227,0.7155924478814005,0.47903537967931475
1761139825092113000,9.51911279296875,0.503853777256608,0.8018614490583539,0.550775395168364
1761139825102172000,9.529171875,0.6588157909095287,1.0155343026161194,0.42707558493725956
1761139825112230700,9.539230712890625,0.8971376402944325,1.1011591606706381,0.31308877494707704
1761139825122288600,9.54928857421875,1.0740548806458712,1.1619313170194625,0.2919899458821863
1761139825132348000,9.559347900390625,1.2484621840029955,1.2644132018506526,0.212678033834137
1761139825142406700,9.56940673828125,1.3353583771675825,1.2785168382659553,0.1296993063742295
1761139825152465000,9.57946484375,1.2010709027528763,1.0906173083901405,0.01184887975845486
1761139825162523600,9.589523681640625,0.7680816367924213,0.8590823426663875,-0.09921921150712296
1761139825172583000,9.5995830078125,0.26199615496098994,0.780825967553258,-0.19277285326691343
1761139825182641700,9.6096416015625,-0.07677344307899475,0.8033665929242968,-0.22335818034047258
1761139825192700000,9.619699951171874,-0.27062252900898454,0.7653612719178199,-0.20949366817697881
1761139825202759000,9.629759033203126,-0.30768472394645213,0.7395882404968142,-0.1861621664228849
1761139825212818000,9.63981787109375,-0.16473463512659073,0.7929851919025183,-0.14664958265861494
1761139825222876000,9.6498759765625,0.05364624999165535,0.8790788365125656,-0.03276860766308382
1761139825232934700,9.6599345703125,0.19062720127403734,0.9642217562690377,0.150876388307102
1761139825242994000,9.669993896484375,0.2911865936100483,1.0134928599163888,0.3131540222030133
1761139825253052700,9.680052734375,0.3900035261929035,0.997849008321762,0.4172256239110604
1761139825263111400,9.690111328125,0.4650584749162197,0.9117419197082519,0.47469453746341167
1761139825273170200,9.700170166015624,0.5781248821258544,0.8300412493601441,0.5188595866760238
1761139825283229400,9.7102294921875,0.7198696868091822,0.7565539883449673,0.5331191077727824
1761139825293287200,9.720287109375,0.870357185396552,0.6759867059409618,0.4845418681411072
1761139825303346400,9.730346435546876,0.9136714264661073,0.5058575182944536,0.46420346552208064
1761139825313405200,9.7404052734375,0.7997598006039858,0.3367965444013476,0.4868672423487529
1761139825323463200,9.750463134765624,0.5919149225473403,0.2232403078481555,0.47867122254204003
1761139825333522400,9.7605224609375,0.3606377309769392,0.25209347736686466,0.39438042610287666
1761139825343581200,9.770581298828125,0.17399521542489527,0.19970219587236643,0.3332880613563582
1761139825353639400,9.780639404296876,0.07767886748611927,-0.021583178515732288,0.42213151613119987
1761139825363698200,9.7906982421875,-0.10263327600061893,-0.3946656727850437,0.5243820398919284
1761139825373757400,9.80075732421875,-0.45052492265105243,-0.7112997191235423,0.5076128740618006
1761139825383816200,9.810816162109376,-0.8924439295202493,-0.8239227664798497,0.20934739157408475
1761139825393874400,9.82087451171875,-1.1686527342289685,-0.7759402413383126,-0.0643318946570158
1761139825403933200,9.83093310546875,-1.2392466118901968,-0.765637166249752,-0.23006014393083749
1761139825413992400,9.840992431640625,-1.060259579527378,-0.8519283792585134,-0.23451686761137097
1761139825424050400,9.851050537109375,-0.6080950729757547,-0.9391410910263657,-0.08839961999747901
1761139825434109200,9.861109130859376,-0.10770400339365005,-0.9079320060312748,0.05461589874140918
1761139825444168400,9.87116845703125,0.25936054576039314,-0.8011623608782887,0.1417086373914033
1761139825454226200,9.88122607421875,0.44662849973440166,-0.7011427745074034,0.23481968648284673
1761139825464285400,9.891285400390625,0.284124400138855,-0.5476081633090972,0.3554944132717326
1761139825474344200,9.90134423828125,-0.07679097873568534,-0.35427287212014197,0.32496889009401203
1761139825484403500,9.911403564453124,-0.3418324927419424,-0.23654987127631902,0.28767789136935024
1761139825494461200,9.921461181640625,-0.45817222253382206,-0.15254618468284606,0.3032302287556231
1761139825504520400,9.9315205078125,-0.4360357940495014,-0.08680150061845779,0.3342970192031935
1761139825514579200,9.9415791015625,-0.2000309894353151,-0.029274902062118052,0.3550035610148683
1761139825524637200,9.95163720703125,0.2192541608214378,-0.01880553049594164,0.4320260469514876
1761139825534696400,9.961696533203124,0.6486842729955912,-0.056927463619410985,0.5330561255391687
1761139825544755200,9.971755126953125,0.9506786763459444,-0.08574205469340085,0.49884899123925713
1761139825554813400,9.9818134765625,1.1889683770269155,-0.11721329775601624,0.36663708098959175
1761139825564872200,9.9918720703125,1.3297645026832818,-0.1400613816410303,0.2734854806920513
1761139825574931500,10.001931396484375,1.3515297597676514,-0.17382979573011398,0.2708166633415967
1761139825584990200,10.011990234375,1.3153034311324356,-0.19718787496387957,0.3029700069168582
1761139825595048400,10.02204833984375,1.2317010188162325,-0.2061445038795471,0.34710933716632425
1761139825605107200,10.032107177734375,1.0748948386013508,-0.20656448285728693,0.43655422843303526
1761139825615166500,10.04216650390625,0.970700304633379,-0.18369331035763023,0.5443316258564591
1761139825625224400,10.052224365234375,0.8793781117200851,-0.16092852084189652,0.6164828159622847
1761139825635283200,10.062283203125,0.8397340835958719,-0.22076661121100186,0.7204628303967416
1761139825645342500,10.072342529296876,0.7142308041393757,-0.3137166975870728,0.810654338779673
1761139825655400200,10.082400146484375,0.5267518377631902,-0.4118886102646589,0.8427705286823213
1761139825665459500,10.09245947265625,0.40169571755230427,-0.4838023383527994,0.8323960688579827
1761139825675518200,10.102518310546875,0.33217326851487156,-0.5238473484933376,0.8052394010588526
1761139825685577500,10.112577392578125,0.2985574146389961,-0.528909892579913,0.815880987386778
1761139825695635200,10.12263525390625,0.28853929397165773,-0.5145636795803904,0.7685835949651897
1761139825705694200,10.132694091796875,0.2883265280038118,-0.48151072028428316,0.6390881040673703
1761139825715753200,10.142753173828124,0.2653279297322035,-0.43544338111430403,0.5815093734649941
1761139825725811200,10.152811279296875,0.2260515658766031,-0.3970362013086676,0.5468931469075381
1761139825735870500,10.162870361328125,0.09861994870603084,-0.37174540044665333,0.47076808473467824
1761139825745929200,10.17292919921875,-0.07973580001592635,-0.3648462885826826,0.35303828882388766
1761139825755987500,10.182987548828125,-0.3051227645039558,-0.38281507599353787,0.14053893602490425
1761139825766046200,10.193046142578124,-0.5075391877710819,-0.39226270329654217,-0.11148691033269278
1761139825776105500,10.20310546875,-0.7767559416353702,-0.4522337723955512,-0.3548321865033358
1761139825786164200,10.213164306640625,-1.0548609353542326,-0.5199082554787398,-0.45164172478653486
1761139825796222200,10.22322216796875,-1.2802777104586363,-0.5568126295059919,-0.41988523504175246
1761139825806281200,10.23328125,-1.2901689898759126,-0.5646662656158209,-0.3415362132091075
1761139825816340200,10.24334033203125,-0.9141139095366001,-0.5246420060023665,-0.13703346692090854
1761139825826398500,10.2533984375,-0.4603285237848758,-0.4676873621150851,0.112424291647505
1761139825836457200,10.263457275390625,-0.1898316669821739,-0.38471711022257804,0.22895181736275552
1761139825846516500,10.2735166015625,-0.042296588459610936,-0.35136662928462026,0.2246197429751977
1761139825856574200,10.28357421875,0.11051613820493221,-0.27750761234760285,0.10960479551367461
1761139825866633500,10.293633544921875,0.27957974244654177,-0.15981529890298843,0.027357469334546476
1761139825876692200,10.303692138671876,0.38020752384364603,-0.026066169148683545,0.039983306548558174
1761139825886751500,10.31375146484375,0.5017272866219282,0.0866416338816285,0.013520721960812805
1761139825896809200,10.323809326171874,0.578659135133028,0.2323398523658514,-0.1316072223547846
1761139825906868200,10.3338681640625,0.49259705470502374,0.3231555570617318,-0.38657234616782515
1761139825916927200,10.34392724609375,0.15075754770040511,0.34510639984607694,-0.5304079856505617
1761139825926985200,10.353985107421876,-0.3993675668656826,0.3674932959601283,-0.603407463148795
1761139825937044500,10.36404443359375,-0.9406237307995557,0.49574733542948957,-0.6361742624472826
1761139825947103200,10.374103271484374,-1.2616180181741714,0.596411941705644,-0.5932022224115208
1761139825957161500,10.384161376953125,-1.3574398605942726,0.676872256603837,-0.5509622229773551
1761139825967220200,10.39422021484375,-1.3161731997042894,0.7998390033200383,-0.5129192368416116
1761139825977279500,10.404279541015624,-1.1748808149635792,0.8419041211113333,-0.30093839149139817
1761139825987338200,10.414338134765625,-1.12474754152894,0.7624661349982023,0.037203795365244145
1761139825997396200,10.424396240234374,-1.280089494410157,0.6737988405078649,0.2210761155515909
1761139826007455200,10.434455322265626,-1.2524158900648354,0.7430024328544735,0.1544617359805852
1761139826017514200,10.44451416015625,-0.7931593794256449,0.8870166437745094,-0.0320856121012941
1761139826027572500,10.454572509765624,-0.0034101007044315336,0.7852101739868521,-0.14472703536450862
1761139826037631200,10.46463134765625,0.669576254376769,0.5352998858779668,-0.17927633416559546
1761139826047690500,10.4746904296875,1.077372626891732,0.43045039513260125,-0.42804643926341085
1761139826057748200,10.484748291015626,1.3385767546921967,0.3820826700657606,-0.8391862404547631
1761139826067807200,10.49480712890625,1.338544605988264,0.3275929549872875,-1.2610780660785734
1761139826077866200,10.5048662109375,1.00479079028368,0.1916726186737418,-1.5793997732430696
1761139826087925200,10.51492529296875,0.42571313747763634,0.0905327961012721,-1.6468220351308582
1761139826097983500,10.5249833984375,-0.24388708229660985,0.1876908555611968,-1.4856521067485213
1761139826108042200,10.535042236328126,-0.7006406702041625,0.4845183776676655,-1.2758736302807927
1761139826118101200,10.545101318359375,-0.8788929585516452,0.7961193982750177,-1.0695768584489822
1761139826128159200,10.5551591796875,-0.8877864591032266,0.9386530152484774,-0.7975532304704189
1761139826138218500,10.565218505859375,-0.7468903802037239,0.9516568737283349,-0.6258258138470352
1761139826148277200,10.57527734375,-0.37850831871032714,0.9191492733553052,-0.5567512547075748
1761139826158335200,10.585335205078126,0.036660043877363206,0.8144453285604715,-0.5209266387410462
1761139826168394200,10.595394287109375,0.3823404442191124,0.6944885773152113,-0.5154946768201887
1761139826178453200,10.605453369140625,0.6070347502678632,0.5926067042037845,-0.48307340302374213
1761139826188512300,10.61551220703125,0.688161127859354,0.5067886616647244,-0.3451647424371913
1761139826198570200,10.6255703125,0.5948264260798692,0.4758350127354264,-0.14261643641870467
1761139826208629200,10.635629150390624,0.4311941992372274,0.46975130890756844,0.05021258574854582
1761139826218688300,10.645688232421875,0.29578502731621265,0.4781953121259808,0.1455395573237911
1761139826228746500,10.65574658203125,0.4161503593623638,0.4005795730039477,0.15561090601570904
1761139826238805200,10.66580517578125,0.6929162134319543,0.17839198907911777,0.10798066491056232
1761139826248864500,10.675864501953125,0.93190617133677,-0.11622604028433561,-0.09462785599571652
1761139826258922200,10.685922119140624,1.0714940902471541,-0.37074703705906864,-0.3556883649412542
1761139826268981500,10.6959814453125,1.1129577350139617,-0.5188631303399801,-0.49762025316189973
1761139826279040300,10.706040283203125,1.0295797791033983,-0.611330109374225,-0.4988582339916378
1761139826289098200,10.71609814453125,0.9037181877285242,-0.5956023788884282,-0.4032894530171528
1761139826299157500,10.726157470703125,0.7838596361607313,-0.3704164899304509,-0.20343718114960938
1761139826309216300,10.73621630859375,0.7313526193320751,-0.13266484164893627,-0.009206986947543919
1761139826319275300,10.746275146484376,0.7321750416308641,-0.027897183968126772,0.21649865156821904
1761139826329333200,10.756333251953125,0.6431003353834152,-0.055448330977559086,0.34294629920274017
1761139826339392500,10.766392578125,0.42667876763939855,-0.045999242369830606,0.3891117649849504
1761139826349451300,10.776451171875,0.19246435357332228,0.024294483301043508,0.2683420899216086
1761139826359509500,10.786509521484374,0.0003606500059366226,0.12625935852080583,0.08007529763597994
1761139826369568300,10.796568359375,-0.008514730367064476,0.12282500015795231,-0.09411695646466686
1761139826379627500,10.80662744140625,0.13122165710330008,-0.007685001544654369,-0.25580889942711216
1761139826389685500,10.816685546875,0.4120803334444761,-0.1617187944367528,-0.4364125549400225
1761139826399744300,10.826744140625,0.8132382908582687,-0.28351357476413247,-0.6373826153237372
1761139826409803300,10.83680322265625,1.1982353870660065,-0.391276322607696,-0.6814449713468551
1761139826419862300,10.8468623046875,1.3343600137799978,-0.5007181095793843,-0.6829973153553903
1761139826429920500,10.85692041015625,1.3135714927732944,-0.5357011601552367,-0.6693392307505012
1761139826439979300,10.866979248046874,1.3015461239367723,-0.49712300769686696,-0.6229167945325375
1761139826450038500,10.87703857421875,1.1778700599074363,-0.44252018763273954,-0.46262441616971045
1761139826460096300,10.88709619140625,0.9416887296825647,-0.3377244729012251,-0.35118287021555006
1761139826470155300,10.8971552734375,0.7063228074938058,-0.264442963591218,-0.33653789346516133
1761139826480214300,10.90721435546875,0.668214902895689,-0.28661066399663687,-0.2554177629513666
1761139826490273300,10.917273193359375,0.7419570154547691,-0.43331016847789283,-0.2331202986864373
1761139826500331500,10.92733154296875,0.8200222519099711,-0.5746762029767036,-0.298100939575769
1761139826510390300,10.937390380859375,0.9148796332120895,-0.712588882151246,-0.4545393459241837
1761139826520449300,10.94744921875,0.9321072468668222,-0.9193678845420479,-0.5667490267066285
1761139826530507300,10.95750732421875,0.8578285432130098,-1.0528522258803248,-0.5531262691434472
1761139826540566500,10.96756640625,0.5796300259917974,-1.0216546851925552,-0.5259460378056392
1761139826550625300,10.977625244140626,0.08434241702854633,-0.8935422461509704,-0.48036925863157953
1761139826560683300,10.987683349609375,-0.4512625892758369,-0.8560945590272545,-0.27070947664007544
1761139826570742300,10.9977421875,-1.0433107828140258,-0.919820158354193,0.03873005508445203
1761139826580801300,11.00780126953125,-1.4296212997078894,-0.8576318515971303,0.25246874042004347
1761139826590859500,11.017859619140625,-1.4885375990569591,-0.7099483045145869,0.3325679303882643
1761139826600918300,11.027918212890626,-1.2786042242884634,-0.6421525331392884,0.3514059383817017
1761139826610977500,11.0379775390625,-0.7419628606736659,-0.8244831768415868,0.37971426043398676
1761139826621036300,11.048036376953124,-0.1528022052705288,-1.0421985837884247,0.35893903730027377
1761139826631094500,11.058094482421875,0.14293606029450892,-1.1894348254948854,0.19967808434441683
1761139826641153300,11.0681533203125,0.056140404894948,-1.2560372954323886,-0.009798851893469691
1761139826651212500,11.078212646484374,-0.4211725714385509,-1.279040716009587,-0.11056984115354716
1761139826661270300,11.088270263671875,-0.9521177692383527,-1.2105226217091083,-0.07354198687709868
1761139826671329300,11.098329345703124,-1.1813187390565871,-1.023935781867057,0.02052080998122692
1761139826681388300,11.10838818359375,-1.298232469344139,-0.7854789079256356,0.15723858028277754
1761139826691446300,11.1184462890625,-1.3566402346491813,-0.5953374443419277,0.16859854401312768
1761139826701505500,11.128505615234374,-1.0285235480487347,-0.45204701765179633,0.1824919717438519
1761139826711564300,11.138564208984375,-0.5051397254139185,-0.3609691548883915,0.313128960826993
1761139826721623300,11.148623291015625,0.18705986418128012,-0.3149614369511604,0.38931379036307334
1761139826731681300,11.158681396484376,0.7279027711391448,-0.2868514870151877,0.13786409079246223
1761139826741740500,11.168740478515625,0.9328864145457744,-0.1806011895611882,-0.47457047269232566
1761139826751799300,11.17879931640625,0.44496611948013304,-0.1474279648862779,-1.3198513036951423
1761139826761857300,11.188857177734375,-0.8142623732089996,-0.0566176670178771,-1.834123306852579
1761139826771916300,11.198916259765625,-2.513910574120283,0.1039502038180828,-1.9701815903320907
1761139826781975300,11.208975341796876,-4.285101331719756,0.3420157403543591,-1.9768734891861677
1761139826792033500,11.219033447265625,-5.580909788787364,1.0112985647425055,-1.8675158733665942
1761139826802092300,11.22909228515625,-5.984754208806157,1.7337556376963852,-1.5501587734505533
1761139826812151600,11.239151611328126,-5.356899373349547,2.1643734983503817,-0.9613750616010278
1761139826822210300,11.249210205078125,-3.929289997985959,2.3248192041113973,-0.264274182895571
1761139826832268300,11.259268310546876,-2.1814649184048176,2.0486999773822725,0.11209778137318789
1761139826842327300,11.269327392578125,-0.5320008443325758,1.505859905257821,0.17068316826745866
1761139826852386300,11.27938623046875,0.8819324723780154,1.0934531163379548,0.1990459239207208
1761139826862444300,11.2894443359375,1.9668746577411889,0.8226344802349805,0.20767507444769143
1761139826872503300,11.29950341796875,2.479585110670328,0.5921718199178576,0.07159509059302509
1761139826882562300,11.309562255859374,2.601574829047918,0.4648302191182971,-0.2974433159172535
1761139826892620300,11.319620361328125,2.5776374886214732,0.33515900632739065,-0.4574119056858122
1761139826902679600,11.329679443359375,2.4569798956304787,0.17791998765319586,-0.2678510184690356
1761139826912738300,11.33973828125,2.293793074467778,0.03085135759860277,0.13640037491545082
1761139826922797600,11.349797607421875,2.0576789642602202,0.07050415355116128,0.484823205833137
1761139826932855300,11.359855224609374,1.7103507967114449,0.24651538497358558,0.7084998592719435
1761139826942914300,11.369914306640625,1.4729776263535022,0.346482656635344,0.869834184435755
1761139826952973300,11.379973388671875,1.4086977541446686,0.22762188393324612,1.1449315207712352
1761139826963031300,11.39003125,1.4283587324261664,0.07589110728651284,1.253793315897882
1761139826973090300,11.40009033203125,1.3034668628662824,0.0204693720549345,0.9406326447583735
1761139826983149300,11.4101494140625,1.073204401296377,0.09756664026081562,0.1916381318822503
1761139826993207600,11.42020751953125,0.9262059138685464,0.3602200900867581,-0.3994926545500755
1761139827003266300,11.430266357421875,0.5717512554407119,0.7576435371473431,-0.5776777228802442
1761139827013325600,11.44032568359375,-0.08645955531299114,1.263175330618769,-0.6017312370322644
1761139827023384300,11.45038427734375,-0.7671487398564815,1.705420208441466,-0.31087372924610973
1761139827033442300,11.4604423828125,-1.3164999474406243,2.0779593896143136,0.08207176868282258
1761139827043501300,11.470501220703126,-1.6303145524442195,2.197580625294894,0.3439921549938619
1761139827053560300,11.480560302734375,-1.5661656131386756,2.2216547438435255,0.4602614498980343
1761139827063618300,11.490618408203124,-1.266822016558051,2.1690406133785842,0.6200719264954329
1761139827073677300,11.50067724609375,-0.9739818105220794,1.8925126597180961,0.5467295538436621
1761139827083736300,11.510736328125,-0.7443523861587047,1.391932205043733,0.1639405621394515
1761139827093794300,11.520794189453126,-0.42652679194808,0.8902440813884138,-0.2594226512111723
1761139827103853600,11.530853515625,-0.09989245285987854,0.5428294045999645,-0.47186903171390293
1761139827113912300,11.540912353515624,0.1570715531527996,0.3224852565847337,-0.4286090050496161
1761139827123971600,11.5509716796875,0.4669283604413271,0.36385377041399475,-0.18364333373606204
1761139827134029300,11.561029296875,0.6459539712488651,0.4739816399537027,0.07924173288866877
1761139827144088300,11.57108837890625,0.655831222140789,0.5757372563369572,0.3178969058811664
1761139827154147300,11.581147216796875,0.5526549253046512,0.5836537285499275,0.48948301433771846
1761139827164205300,11.591205322265624,0.41671383846402166,0.50813949175179,0.5338051172755658
1761139827174264300,11.601264404296876,0.3695172030031681,0.452912986831367,0.4560169441960752
1761139827184323300,11.6113232421875,0.4025023577600717,0.33929888261109586,0.22648133559599518
1761139827194381300,11.62138134765625,0.46723348086774347,0.15662775490805506,-0.02346168573871255
1761139827204440300,11.6314404296875,0.6702893710821867,-0.0288850259616971,-0.17593173644542692
1761139827214499600,11.64149951171875,0.8441314417719841,-0.14194149629920721,-0.21647914315015077
1761139827224558300,11.651558349609376,0.8799486050844192,-0.25982801714167,-0.27855259135589
1761139827234616300,11.6616162109375,0.8956289892971515,-0.34456644775047895,-0.2415299977764487
1761139827244675300,11.67167529296875,0.8703618615716695,-0.3817870481200516,-0.18010040043219924
1761139827254734300,11.681734375,0.6799480107873678,-0.3957679349385202,-0.22722645487487314
1761139827264792000,11.6917919921875,0.4403267692416906,-0.3827741594612598,-0.22870646429955957
1761139827274850800,11.701850830078126,0.17518237938284872,-0.2508123515151441,-0.21195275176689027
1761139827284910000,11.71191015625,-0.15683949796259403,-0.0970920084863901,-0.4516055574946105
1761139827294967800,11.7219677734375,-0.43409401233196254,-0.08235738069117068,-0.6997087961815297
1761139827305026800,11.73202685546875,-0.4128314440727234,-0.11830854564681649,-1.0493795813336968
1761139827315085800,11.7420859375,-0.34659985327422616,-0.2335287698894739,-1.2480952503867446
1761139827325144800,11.752144775390626,-0.25490707348287106,-0.321610957968235,-1.2982478130437434
1761139827335202800,11.762202880859375,-0.16356968300044536,-0.27030323392674327,-1.1662705152675508
1761139827345261800,11.77226171875,0.38271804535984993,-0.5105037366650998,-0.733081635081768
1761139827355320800,11.78232080078125,0.7067617834329605,-0.511724072240293,-0.6764492088861763
1761139827365378800,11.79237890625,0.8911772705852985,-0.2638530348740518,-0.7638011829942465
1761139827375437800,11.802437744140626,1.0126748215317725,-0.22529577907323836,-0.6710054103970527
1761139827385496800,11.812496826171875,1.079150157958269,-0.267649796808511,-0.6625891719684004
1761139827395556000,11.82255615234375,0.9698878192067145,-0.20295622923225162,-0.6547168311581015
