time,seconds_elapsed,z,y,x
1761139815646974200,0.07397412109375,0.47551319003105164,0.026688463985919952,0.43767571449279785
1761139815657033000,0.084032958984375,0.4493417739868164,0.21839956939220428,0.38963255286216736
1761139815667092000,0.094092041015625,0.4280163645744324,0.36940231919288635,0.3103649318218231
1761139815677150000,0.10414990234375,0.4069148004055023,0.40655821561813354,0.20614956319332123
1761139815687209200,0.114209228515625,0.3574454188346863,0.2801699638366699,0.09046689420938492
1761139815697268000,0.12426806640625,0.24880176782608032,0.058833297342061996,-0.025742273777723312
1761139815707327200,0.1343271484375,0.09109043329954147,-0.20264491438865662,-0.12807877361774445
1761139815717385000,0.144385009765625,-0.05094047263264656,-0.4302271902561188,-0.21032783389091492
1761139815727444200,0.1544443359375,-0.11753404885530472,-0.5562738180160522,-0.2494686245918274
1761139815737503000,0.1645029296875,-0.13685688376426697,-0.5892075300216675,-0.245701864361763
1761139815747562200,0.174562255859375,-0.11915038526058197,-0.5380318760871887,-0.17651064693927765
1761139815757620200,0.1846201171875,-0.04633130505681038,-0.3742024898529053,-0.04301277920603752
1761139815767679000,0.194678955078125,0.06597724556922913,-0.14146140217781067,0.1147344559431076
1761139815777738000,0.204738037109375,0.1616228073835373,0.06576314568519592,0.25355198979377747
1761139815787797000,0.214796875,0.23262469470500946,0.19725799560546875,0.3365730047225952
1761139815797855200,0.224855224609375,0.2892163395881653,0.22579136490821838,0.37819981575012207
1761139815807914000,0.2349140625,0.3270922601222992,0.16627342998981476,0.40449589490890503
1761139815817973200,0.24497314453125,0.31547287106513977,0.05317537114024162,0.41694775223731995
1761139815828031000,0.255031005859375,0.25333037972450256,-0.0978391245007515,0.46640345454216003
1761139815838090200,0.26509033203125,0.22367554903030396,-0.18716394901275635,0.5903778672218323
1761139815848149000,0.27514892578125,0.22112850844860077,-0.21005035936832428,0.7589237689971924
1761139815858208300,0.285208251953125,0.23698896169662476,-0.21081575751304626,0.939034640789032
1761139815868266000,0.295265869140625,0.2614995241165161,-0.27138692140579224,1.097732424736023
1761139815878325000,0.305324951171875,0.29229897260665894,-0.37287890911102295,1.2060458660125732
1761139815888384000,0.315384033203125,0.32471269369125366,-0.4262920916080475,1.2549026012420654
1761139815898443000,0.325443115234375,0.3500193655490875,-0.413135290145874,1.253880262374878
1761139815908501200,0.335501220703125,0.36788588762283325,-0.3409465551376343,1.2232117652893066
1761139815918560000,0.34556005859375,0.3598945140838623,-0.2788030207157135,1.1618858575820923
1761139815928619300,0.355619384765625,0.32228565216064453,-0.23431096971035004,1.0763449668884277
1761139815938678000,0.365677978515625,0.2635094225406647,-0.22839608788490295,0.9659342169761658
1761139815948736000,0.375736083984375,0.20205816626548767,-0.2593021094799042,0.842936098575592
1761139815958795000,0.385794921875,0.17114925384521484,-0.30846431851387024,0.7313973307609558
1761139815968854000,0.39585400390625,0.15890376269817352,-0.3726728856563568,0.6456030607223511
1761139815978913000,0.4059130859375,0.15807205438613892,-0.43406325578689575,0.5983402132987976
1761139815988971000,0.415970947265625,0.15514877438545227,-0.4543841779232025,0.5784560441970825
1761139815999030000,0.426030029296875,0.15623988211154938,-0.43168342113494873,0.5771270990371704
1761139816009089000,0.436089111328125,0.15689340233802795,-0.39339765906333923,0.5938761234283447
1761139816019148000,0.44614794921875,0.15792804956436157,-0.33827394247055054,0.6326559782028198
1761139816029206000,0.4562060546875,0.15267738699913025,-0.2668203115463257,0.6725727915763855
1761139816039265300,0.466265380859375,0.15335382521152496,-0.1616251915693283,0.6955505013465881
1761139816049324000,0.476323974609375,0.15542727708816528,-0.01020466722548008,0.6978628039360046
1761139816059383000,0.486383056640625,0.16924242675304413,0.12303275614976883,0.6648969054222107
1761139816069441000,0.49644091796875,0.1805647313594818,0.20239844918251038,0.5979855060577393
1761139816079500000,0.5065,0.16571255028247833,0.2474633902311325,0.5232548117637634
1761139816089559000,0.51655908203125,0.14913827180862427,0.22125448286533356,0.45271697640419006
1761139816099617000,0.526616943359375,0.13692714273929596,0.2121075838804245,0.41655418276786804
1761139816109676000,0.536676025390625,0.14463353157043457,0.26936328411102295,0.4251028299331665
1761139816119735000,0.546735107421875,0.1548137217760086,0.3614082634449005,0.4654366970062256
1761139816129794000,0.5567939453125,0.1432354599237442,0.4442247152328491,0.49685996770858765
1761139816139852000,0.56685205078125,0.12681573629379272,0.5041317343711853,0.5030981302261353
1761139816149911000,0.5769111328125,0.11305809766054153,0.5439596176147461,0.47323721647262573
1761139816159970000,0.586969970703125,0.12073386460542679,0.5751534700393677,0.4085620641708374
1761139816170029000,0.597029052734375,0.1270454227924347,0.5658251643180847,0.29231902956962585
1761139816180087000,0.607087158203125,0.12754875421524048,0.4174298048019409,0.10610281676054001
1761139816190146000,0.61714599609375,0.12606103718280792,0.09515653550624847,-0.08848809450864792
1761139816200205000,0.627205078125,0.13558663427829742,-0.19161903858184814,-0.19386377930641174
1761139816210264000,0.63726416015625,0.15134157240390778,-0.31801217794418335,-0.18072810769081116
1761139816220322000,0.647322021484375,0.09687539935112,-0.3419976532459259,-0.10640566796064377
1761139816230381000,0.657381103515625,0.022530196234583855,-0.2947503328323364,-0.004141665529459715
1761139816240440000,0.667440185546875,0.002110143657773733,-0.16205620765686035,0.08829931914806366
1761139816250499600,0.67749951171875,0.044741444289684296,-0.015299432910978794,0.12690722942352295
1761139816260557300,0.687557373046875,0.13209259510040283,0.1424284130334854,0.1007523387670517
1761139816270616600,0.697616455078125,0.2191627323627472,0.2884797155857086,0.008158555254340172
1761139816280675300,0.70767529296875,0.2646716237068176,0.28628793358802795,-0.15736250579357147
1761139816290734600,0.717734619140625,0.26036062836647034,0.1303577870130539,-0.3293698728084564
1761139816300792600,0.72779248046875,0.21500328183174133,-0.04123393073678017,-0.4282519817352295
1761139816310851600,0.7378515625,0.13313248753547668,-0.10784459114074707,-0.4100896418094635
1761139816320910300,0.747910400390625,0.025331992655992508,-0.04988861083984375,-0.32253211736679077
1761139816330968300,0.75796826171875,-0.060495760291814804,0.06712336093187332,-0.1980094313621521
1761139816341027600,0.768027587890625,-0.11032803356647491,0.21160784363746643,-0.08443998545408249
1761139816351086300,0.77808642578125,-0.11419717967510223,0.32683274149894714,-0.01767137087881565
1761139816361145600,0.7881455078125,-0.09025482833385468,0.4022026062011719,-0.018492424860596657
1761139816371203300,0.798203369140625,-0.028196794912219048,0.46779218316078186,-0.05606093257665634
1761139816381262600,0.8082626953125,0.03851592168211937,0.480630487203598,-0.14656765758991241
1761139816391321300,0.8183212890625,0.0679442510008812,0.3356451094150543,-0.290418803691864
1761139816401380600,0.828380615234375,0.06655913591384888,0.09468337893486023,-0.41428107023239136
1761139816411438600,0.8384384765625,0.050766296684741974,-0.09121482074260712,-0.45561566948890686
1761139816421497600,0.84849755859375,0.014567280188202858,-0.18724361062049866,-0.3931131660938263
1761139816431556400,0.858556396484375,-0.03995881229639053,-0.21124161779880524,-0.2729228436946869
1761139816441615600,0.86861572265625,-0.10823347419500351,-0.1694566309452057,-0.12832355499267578
1761139816451673600,0.878673583984375,-0.1636098325252533,-0.10407443344593048,0.0018296748166903853
1761139816461732400,0.888732421875,-0.19653822481632233,-0.03281623497605324,0.08132237195968628
1761139816471791600,0.89879150390625,-0.20067788660526276,0.039302147924900055,0.08426399528980255
1761139816481850400,0.908850341796875,-0.19588233530521393,0.11216303706169128,0.02241075225174427
1761139816491908600,0.91890869140625,-0.1870151311159134,0.21907639503479004,-0.08528324961662292
1761139816501967400,0.92896728515625,-0.16424404084682465,0.3413383960723877,-0.21490834653377533
1761139816512026600,0.939026611328125,-0.1462242603302002,0.3849506378173828,-0.3698698878288269
1761139816522085400,0.94908544921875,-0.13755807280540466,0.30315616726875305,-0.5265489816665649
1761139816532143600,0.9591435546875,-0.14107736945152283,0.1739930361509323,-0.6211944222450256
1761139816542202400,0.969202392578125,-0.1492692530155182,0.08257684111595154,-0.6281495094299316
1761139816552261600,0.97926171875,-0.15472090244293213,0.03189309686422348,-0.5721756815910339
1761139816562319600,0.989319580078125,-0.1603609323501587,0.0010150764137506485,-0.49984046816825867
1761139816572378400,0.99937841796875,-0.1510901302099228,-0.0299818255007267,-0.4604027271270752
1761139816582437600,1.009437744140625,-0.10610774159431458,-0.05880947783589363,-0.4731033146381378
1761139816592496400,1.019496337890625,-0.06205179914832115,-0.05039677768945694,-0.5407092571258545
1761139816602554600,1.0295546875,-0.041133202612400055,-0.006560346577316523,-0.6715591549873352
1761139816612613400,1.03961328125,-0.03155454620718956,0.0418570302426815,-0.8372157216072083
1761139816622672600,1.049672607421875,-0.01240508258342743,0.014623544178903103,-1.0143966674804688
1761139816632731400,1.0597314453125,0.023652903735637665,-0.11152713745832443,-1.1356781721115112
1761139816642789400,1.069789306640625,0.07750042527914047,-0.2887357473373413,-1.1505707502365112
1761139816652848400,1.079848388671875,0.12821146845817566,-0.4771174192428589,-1.0751973390579224
1761139816662907400,1.089907470703125,0.18523481488227844,-0.5879512429237366,-0.9147107005119324
1761139816672966400,1.09996630859375,0.24021145701408386,-0.6129050850868225,-0.7053236961364746
1761139816683024400,1.1100244140625,0.2785385847091675,-0.5772384405136108,-0.5119406580924988
1761139816693083600,1.120083740234375,0.3012419641017914,-0.5094665884971619,-0.3891523778438568
1761139816703142400,1.130142333984375,0.295704185962677,-0.4740835726261139,-0.36057960987091064
1761139816713201400,1.140201416015625,0.2600838541984558,-0.4229982793331146,-0.37769412994384766
1761139816723259400,1.15025927734375,0.20758284628391266,-0.3136528730392456,-0.39394262433052063
1761139816733318700,1.160318603515625,0.15126363933086395,-0.18217448890209198,-0.3953913748264313
1761139816743377400,1.17037744140625,0.12051505595445633,-0.06909773498773575,-0.3742770254611969
1761139816753435400,1.180435302734375,0.12846775352954865,0.006543961353600025,-0.33549752831459045
1761139816763494400,1.190494384765625,0.1608898788690567,0.026363473385572433,-0.30667227506637573
1761139816773553400,1.200553466796875,0.20799268782138824,0.015352485701441765,-0.3067997097969055
1761139816783612400,1.2106123046875,0.2512759566307068,-0.0045333378948271275,-0.3555222451686859
1761139816793670400,1.22067041015625,0.2844223082065582,-0.028241218999028206,-0.4260178804397583
1761139816803729400,1.2307294921875,0.2904013693332672,-0.05985613539814949,-0.49692240357398987
1761139816813788400,1.240788330078125,0.2518689036369324,-0.05246506631374359,-0.541996419429779
1761139816823847400,1.250847412109375,0.1788892298936844,0.0058288672007620335,-0.5770838260650635
1761139816833905400,1.260905517578125,0.0983818843960762,0.1085662841796875,-0.5959452986717224
1761139816843964700,1.270964599609375,0.03662664070725441,0.23382779955863953,-0.5855733752250671
1761139816854023400,1.2810234375,0.008540811017155647,0.3849385678768158,-0.5358778834342957
1761139816864082700,1.291082763671875,0.011347781866788864,0.5447703003883362,-0.45726728439331055
1761139816874140400,1.301140380859375,0.06298928707838058,0.6598844528198242,-0.3576498031616211
1761139816884199400,1.311199462890625,0.12938934564590454,0.712497353553772,-0.24888312816619873
1761139816894258400,1.321258544921875,0.18832501769065857,0.6916917562484741,-0.14230433106422424
1761139816904317400,1.3313173828125,0.22744391858577728,0.6185951232910156,-0.043561242520809174
1761139816914375400,1.34137548828125,0.224107027053833,0.4757748544216156,0.04353310540318489
1761139816924434400,1.351434326171875,0.18491753935813904,0.2794972360134125,0.12904614210128784
1761139816934493400,1.361493408203125,0.13719481229782104,0.05331433191895485,0.22638699412345886
1761139816944551400,1.371551513671875,0.0988338366150856,-0.16629178822040558,0.3309706747531891
1761139816954610700,1.381610595703125,0.07490687072277069,-0.3478703200817108,0.4122403562068939
1761139816964669400,1.39166943359375,0.07143757492303848,-0.4725765585899353,0.4582773745059967
1761139816974728700,1.401728759765625,0.09245047718286514,-0.5346684455871582,0.4659157991409302
1761139816984786400,1.411786376953125,0.1170026883482933,-0.5855438709259033,0.40779149532318115
1761139816994845400,1.421845458984375,0.140835240483284,-0.6696835160255432,0.30345308780670166
1761139817004904400,1.431904541015625,0.13927462697029114,-0.7475732564926147,0.2014542818069458
1761139817014963500,1.44196337890625,0.11849585920572281,-0.7906497120857239,0.14200958609580994
1761139817025021400,1.452021484375,0.09168927371501923,-0.8192291259765625,0.141611710190773
1761139817035080400,1.46208056640625,0.050055984407663345,-0.822753369808197,0.2057439684867859
1761139817045139500,1.472139404296875,-0.0072230203077197075,-0.8043341636657715,0.3110067546367645
1761139817055198500,1.482198486328125,-0.08028889447450638,-0.748824954032898,0.4297465682029724
1761139817065256700,1.492256591796875,-0.15451784431934357,-0.6573498845100403,0.5278052091598511
1761139817075315500,1.5023154296875,-0.22780326008796692,-0.590228259563446,0.5530803799629211
1761139817085374700,1.512374755859375,-0.2909713387489319,-0.5590548515319824,0.5128650665283203
1761139817095433500,1.52243359375,-0.3605140149593353,-0.5834701657295227,0.44154325127601624
1761139817105491500,1.532491455078125,-0.4452970623970032,-0.6771740317344666,0.3704158067703247
1761139817115550500,1.542550537109375,-0.5104174017906189,-0.7705056667327881,0.3311777114868164
1761139817125609500,1.552609375,-0.565785825252533,-0.850908637046814,0.31987419724464417
1761139817135667500,1.56266748046875,-0.6144981980323792,-0.9310314655303955,0.3383508622646332
1761139817145726500,1.5727265625,-0.666286051273346,-0.9465031027793884,0.3814679980278015
1761139817155785500,1.582785400390625,-0.7284494638442993,-0.860784113407135,0.4538200795650482
1761139817165844500,1.592844482421875,-0.7559532523155212,-0.7201343178749084,0.508354127407074
1761139817175902500,1.60290234375,-0.7279011607170105,-0.5144185423851013,0.5374600291252136
1761139817185961500,1.61296142578125,-0.6725518703460693,-0.2517145276069641,0.540869414806366
1761139817196020500,1.6230205078125,-0.6027947664260864,-0.019782815128564835,0.5447050333023071
1761139817206079500,1.63307958984375,-0.5237846374511719,0.15853473544120789,0.5492500066757202
1761139817216137500,1.643137451171875,-0.4555991590023041,0.25302162766456604,0.5672000646591187
1761139817226196500,1.653196533203125,-0.39895930886268616,0.24971242249011993,0.5856640338897705
1761139817236255500,1.66325537109375,-0.3587074875831604,0.22151033580303192,0.6068527102470398
1761139817246314500,1.673314453125,-0.3428015112876892,0.22906625270843506,0.6273385286331177
1761139817256375000,1.683375,-0.34021320939064026,0.25576862692832947,0.6184659004211426
1761139817266434300,1.693434326171875,-0.3364424407482147,0.29109519720077515,0.5594294667243958
1761139817276493000,1.7034931640625,-0.3344336748123169,0.34089362621307373,0.44495314359664917
1761139817286551000,1.713551025390625,-0.34135496616363525,0.413577675819397,0.30262744426727295
1761139817296610000,1.723610107421875,-0.3358590602874756,0.47266823053359985,0.16336017847061157
1761139817306669000,1.7336689453125,-0.3215738534927368,0.5003848075866699,0.06632497161626816
1761139817316728000,1.74372802734375,-0.3010847270488739,0.5081533789634705,0.0054170009680092335
1761139817326786000,1.7537861328125,-0.27846118807792664,0.4876598119735718,-0.011812319047749043
1761139817336845000,1.763844970703125,-0.2515006959438324,0.43287503719329834,0.00754476897418499
1761139817346904000,1.773904052734375,-0.2127533107995987,0.3648538887500763,0.050906889140605927
1761139817356963000,1.783963134765625,-0.16810235381126404,0.2928386628627777,0.08308272063732147
1761139817367021000,1.79402099609375,-0.10725390911102295,0.22999924421310425,0.08288378268480301
1761139817377080300,1.804080322265625,-0.04534810781478882,0.19108276069164276,0.048597123473882675
1761139817387139000,1.81413916015625,0.014486998319625854,0.18882466852664948,-0.0010239576222375035
1761139817397198000,1.824197998046875,0.0380537323653698,0.22682997584342957,-0.060666292905807495
1761139817407256000,1.834256103515625,0.03770565614104271,0.29205530881881714,-0.10007095336914062
1761139817417315000,1.844315185546875,0.013155786320567131,0.3688207268714905,-0.11882699280977249
1761139817427374000,1.8543740234375,-0.016973087564110756,0.4389132857322693,-0.11640831083059311
1761139817437433000,1.86443310546875,-0.03327644243836403,0.4902293384075165,-0.10488304495811462
1761139817447491000,1.874490966796875,-0.02287972718477249,0.507124125957489,-0.08989051729440689
1761139817457550000,1.884550048828125,0.005619006231427193,0.467507541179657,-0.0934532955288887
1761139817467609000,1.894609130859375,0.027475835755467415,0.3842209279537201,-0.10892040282487869
1761139817477667000,1.9046669921875,0.03645347058773041,0.23929281532764435,-0.14006222784519196
1761139817487726300,1.914726318359375,0.02551826275885105,0.05484921857714653,-0.1760716289281845
1761139817497785000,1.92478515625,0.004361345432698727,-0.13040030002593994,-0.21285393834114075
1761139817507844000,1.934843994140625,-0.027826152741909027,-0.2585638463497162,-0.23076316714286804
1761139817517902000,1.944902099609375,-0.05624516308307648,-0.2734544277191162,-0.23623228073120117
1761139817527961000,1.954961181640625,-0.0812051072716713,-0.19375985860824585,-0.2380959540605545
1761139817538020000,1.96502001953125,-0.09445172548294067,-0.06805328279733658,-0.23195350170135498
1761139817548079000,1.9750791015625,-0.0912250429391861,0.047026973217725754,-0.22583968937397003
1761139817558137000,1.98513720703125,-0.07772621512413025,0.11864394694566727,-0.2113099843263626
1761139817568196000,1.995196044921875,-0.062231145799160004,0.14501483738422394,-0.1811845600605011
1761139817578255000,2.005255126953125,-0.04973328113555908,0.12091243267059326,-0.14741304516792297
1761139817588313000,2.01531298828125,-0.03474767506122589,0.07000929862260818,-0.11002279818058014
1761139817598372000,2.0253720703125,-0.017646918073296547,0.005730225704610348,-0.07462669909000397
1761139817608431000,2.03543115234375,0.001695089042186737,-0.06503129750490189,-0.04406613111495972
1761139817618490000,2.045489990234375,0.016130752861499786,-0.13311047852039337,-0.019991952925920486
1761139817628548000,2.055548095703125,0.02463715523481369,-0.21181993186473846,-0.019625501707196236
1761139817638607000,2.065607177734375,0.019239911809563637,-0.27677860856056213,-0.0519137866795063
1761139817648666000,2.075666015625,0.010964937508106232,-0.2962718605995178,-0.09286308288574219
1761139817658725000,2.08572509765625,-0.0029538911767303944,-0.29889509081840515,-0.1194678246974945
1761139817668783000,2.095783203125,-0.025087423622608185,-0.30106475949287415,-0.13899464905261993
1761139817678842000,2.105842041015625,-0.040587134659290314,-0.3016541004180908,-0.17409133911132812
1761139817688901000,2.115901123046875,-0.03131560608744621,-0.29749661684036255,-0.2353632152080536
1761139817698960100,2.125960205078125,0.004208894446492195,-0.28700488805770874,-0.32113900780677795
1761139817709018000,2.13601806640625,0.05913552641868591,-0.2720640301704407,-0.40489861369132996
1761139817719077000,2.1460771484375,0.11688539385795593,-0.23685812950134277,-0.458957314491272
1761139817729135900,2.156135986328125,0.14972935616970062,-0.21577228605747223,-0.4914841055870056
1761139817739194000,2.166194091796875,0.16313029825687408,-0.21434526145458221,-0.49658840894699097
1761139817749253000,2.176253173828125,0.16347332298755646,-0.22062820196151733,-0.4558306336402893
1761139817759312100,2.18631201171875,0.15623055398464203,-0.18802212178707123,-0.3608192503452301
1761139817769371100,2.19637109375,0.1402454674243927,-0.09473798424005508,-0.21575632691383362
1761139817779429000,2.20642919921875,0.11665485799312592,-0.050196003168821335,-0.07888735085725784
1761139817789488000,2.216488037109375,0.10733246803283691,-0.09445241838693619,-0.018787261098623276
1761139817799547100,2.226547119140625,0.11655566096305847,-0.16911448538303375,-0.04408067837357521
1761139817809606100,2.236606201171875,0.12575821578502655,-0.18721678853034973,-0.1326795220375061
1761139817819664100,2.2466640625,0.1154855489730835,-0.08898468315601349,-0.24752214550971985
1761139817829723100,2.25672314453125,0.09155172109603882,0.08650963753461838,-0.36995697021484375
1761139817839782000,2.266781982421875,0.08294781297445297,0.2720243036746979,-0.4863974153995514
1761139817849841200,2.276841064453125,0.0986199900507927,0.4045429229736328,-0.5896239280700684
1761139817859899100,2.286899169921875,0.13567136228084564,0.41770830750465393,-0.6729866862297058
1761139817869958100,2.296958251953125,0.18431320786476135,0.32961520552635193,-0.7132315635681152
1761139817880017200,2.30701708984375,0.2230975329875946,0.1957855075597763,-0.6785082221031189
1761139817890075100,2.3170751953125,0.24018891155719757,0.06285594403743744,-0.5929288864135742
1761139817900134100,2.327134033203125,0.2435256987810135,-0.0517825186252594,-0.44741594791412354
1761139817910193200,2.337193115234375,0.24505995213985443,-0.11526935547590256,-0.23497186601161957
1761139817920252200,2.347252197265625,0.2243005782365799,-0.1281161904335022,0.006649100221693516
1761139817930310000,2.357309814453125,0.2028578817844391,-0.07997982203960419,0.241675466299057
1761139817940369200,2.367369140625,0.20073546469211578,0.013787766918540001,0.438054621219635
1761139817950428000,2.377427978515625,0.21388642489910126,0.10551635175943375,0.5765339136123657
1761139817960487200,2.387487060546875,0.21738144755363464,0.18860100209712982,0.6500141620635986
1761139817970545200,2.397545166015625,0.23988117277622223,0.31122201681137085,0.6978695392608643
1761139817980604200,2.407604248046875,0.2682833671569824,0.3854038119316101,0.7122490406036377
1761139817990663200,2.4176630859375,0.289124995470047,0.4118279814720154,0.7256690263748169
1761139818000722200,2.42772216796875,0.29217973351478577,0.37692391872406006,0.7365906834602356
1761139818010780200,2.4377802734375,0.2800365388393402,0.2945408821105957,0.7470049858093262
1761139818020839200,2.447839111328125,0.25961288809776306,0.20425772666931152,0.7441028952598572
1761139818030898200,2.457898193359375,0.22236432135105133,0.14278557896614075,0.7149739861488342
1761139818040956000,2.467955810546875,0.17402656376361847,0.13710157573223114,0.6502758264541626
1761139818051015200,2.47801513671875,0.12733681499958038,0.1801646202802658,0.5580061078071594
1761139818061074000,2.488073974609375,0.07964520901441574,0.22906383872032166,0.42673954367637634
1761139818071133200,2.49813330078125,0.020843682810664177,0.2660316824913025,0.2748624086380005
1761139818081191200,2.508191162109375,-0.03865286335349083,0.2806459367275238,0.1316034197807312
1761139818091250200,2.518250244140625,-0.09091287106275558,0.2747363746166229,0.019382616505026817
1761139818101309200,2.52830908203125,-0.1386888027191162,0.23189140856266022,-0.0642140582203865
1761139818111368200,2.5383681640625,-0.1768692135810852,0.1457778364419937,-0.12045575678348541
1761139818121426200,2.54842626953125,-0.19977305829524994,0.03133732080459595,-0.1623043566942215
1761139818131485200,2.558485107421875,-0.19535993039608002,-0.0679573118686676,-0.18634045124053955
1761139818141544200,2.568544189453125,-0.1725848913192749,-0.14197246730327606,-0.18156835436820984
1761139818151602000,2.578601806640625,-0.1427156776189804,-0.1975635439157486,-0.1490711271762848
1761139818161661200,2.5886611328125,-0.11682536453008652,-0.22092683613300323,-0.08705805242061615
1761139818171720000,2.598719970703125,-0.09171947836875916,-0.19541269540786743,-0.002532779471948743
1761139818181779200,2.608779296875,-0.07093755155801773,-0.13434436917304993,0.09641721844673157
1761139818191837200,2.618837158203125,-0.06196056306362152,-0.037831149995326996,0.20467311143875122
1761139818201896200,2.628896240234375,-0.06928393244743347,0.08144379407167435,0.305110901594162
1761139818211955000,2.638954833984375,-0.08529938757419586,0.17627789080142975,0.3612191677093506
1761139818222014200,2.64901416015625,-0.10718616098165512,0.2249131053686142,0.3654629588127136
1761139818232072200,2.659072265625,-0.11750005185604095,0.22132237255573273,0.3293907046318054
1761139818242131000,2.669130859375,-0.12601803243160248,0.15419012308120728,0.2557702362537384
1761139818252187100,2.679187255859375,-0.13165141642093658,0.028238311409950256,0.1561584323644638
1761139818262246100,2.68924609375,-0.1332140862941742,-0.10840871185064316,0.05136066675186157
1761139818272304000,2.69930419921875,-0.13965573906898499,-0.20279300212860107,-0.026444915682077408
1761139818282363100,2.709363037109375,-0.1570441573858261,-0.23894871771335602,-0.07407326996326447
1761139818292422100,2.719422119140625,-0.1841687262058258,-0.23747491836547852,-0.0922059416770935
1761139818302480000,2.72947998046875,-0.20947860181331635,-0.1982782483100891,-0.08844742178916931
1761139818312539100,2.7395390625,-0.22677956521511078,-0.13468116521835327,-0.08503884077072144
1761139818322598000,2.749597900390625,-0.22875872254371643,-0.03459547087550163,-0.07381882518529892
1761139818332657200,2.7596572265625,-0.22566333413124084,0.060331571847200394,-0.05094093829393387
1761139818342715100,2.769715087890625,-0.22218556702136993,0.0776888057589531,-0.030648374930024147
1761139818352774100,2.779774169921875,-0.21822971105575562,0.007558717392385006,-0.018648970872163773
1761139818362833000,2.7898330078125,-0.19937026500701904,-0.1153232604265213,-0.007802182342857122
1761139818372892200,2.79989208984375,-0.17252559959888458,-0.26547548174858093,0.0036858958192169666
1761139818382950100,2.8099501953125,-0.13940741121768951,-0.3754063546657562,0.00396167766302824
1761139818393009000,2.8200087890625,-0.10362226516008377,-0.42466074228286743,-0.007028921507298946
1761139818403068200,2.830068115234375,-0.07235751301050186,-0.4125094413757324,-0.020393097773194313
1761139818413126000,2.8401259765625,-0.04455837607383728,-0.34520548582077026,-0.026668304577469826
1761139818423185200,2.85018505859375,-0.04442211985588074,-0.23036682605743408,-0.014502136036753654
1761139818433244000,2.860243896484375,-0.04919024556875229,-0.1036863774061203,0.006856681779026985
1761139818443303200,2.87030322265625,-0.029535602778196335,-0.014680914580821991,0.059969790279865265
1761139818453361200,2.880361083984375,0.0011919495882466435,0.026614060625433922,0.1416500210762024
1761139818463420200,2.890420166015625,0.028803886845707893,0.001105989795178175,0.21525977551937103
1761139818473479000,2.90047900390625,0.056792378425598145,-0.0650021880865097,0.25564688444137573
1761139818483538200,2.9105380859375,0.08235585689544678,-0.14690713584423065,0.2461966872215271
1761139818493596200,2.92059619140625,0.1137571930885315,-0.2052801549434662,0.21578684449195862
1761139818503655000,2.930655029296875,0.13409548997879028,-0.21182818710803986,0.16599248349666595
1761139818513714200,2.940714111328125,0.1249597817659378,-0.13796141743659973,0.10607295483350754
1761139818523772000,2.95077197265625,0.09514573216438293,0.004000691697001457,0.045423731207847595
1761139818533831200,2.9608310546875,0.05862952768802643,0.16653315722942352,0.003724754322320223
1761139818543890000,2.970889892578125,0.03406364843249321,0.3034169673919678,-0.012114156037569046
1761139818553949200,2.98094921875,0.019573388621211052,0.379048615694046,0.003834184492006898
1761139818564007200,2.991007080078125,0.021374352276325226,0.37198927998542786,0.02843269146978855
1761139818574066200,3.001066162109375,0.03965109586715698,0.29941174387931824,0.06288494169712067
1761139818584125000,3.011125,0.07140111923217773,0.20829744637012482,0.10196562111377716
1761139818594184200,3.02118408203125,0.09440044313669205,0.09933927655220032,0.12560969591140747
1761139818604242200,3.0312421875,0.11113446205854416,-0.02245274744927883,0.11816848069429398
1761139818614301000,3.041301025390625,0.12761010229587555,-0.14653794467449188,0.09393318742513657
1761139818624360200,3.051360107421875,0.130808025598526,-0.2630555033683777,0.06505066901445389
1761139818634419000,3.0614189453125,0.12444786727428436,-0.3576597571372986,0.06575054675340652
1761139818644477200,3.071477294921875,0.11964139342308044,-0.4108468294143677,0.07675047218799591
1761139818654536000,3.081535888671875,0.10661454498767853,-0.4080854058265686,0.10678054392337799
1761139818664595200,3.09159521484375,0.08655252307653427,-0.32115304470062256,0.17174501717090607
1761139818674653000,3.10165283203125,0.0380539633333683,-0.27113860845565796,0.2505679130554199
1761139818684712200,3.111712158203125,-0.020903831347823143,-0.31149744987487793,0.3406059443950653
1761139818694771000,3.12177099609375,-0.07588159292936325,-0.34670230746269226,0.43379315733909607
1761139818704830200,3.131830322265625,-0.11034553498029709,-0.35147008299827576,0.501362681388855
1761139818714888200,3.14188818359375,-0.1357440948486328,-0.37534984946250916,0.49537888169288635
1761139818724947000,3.151947021484375,-0.15109603106975555,-0.4272216260433197,0.42635926604270935
1761139818735006200,3.162006103515625,-0.17147134244441986,-0.5223097801208496,0.3038906157016754
1761139818745065000,3.17206494140625,-0.21102094650268555,-0.6416211724281311,0.13097907602787018
1761139818755123200,3.182123291015625,-0.2645201086997986,-0.7219157814979553,-0.052784617990255356
1761139818765182000,3.192181884765625,-0.3159611225128174,-0.6980674266815186,-0.22525890171527863
1761139818775241200,3.2022412109375,-0.3630375564098358,-0.5567164421081543,-0.3685055375099182
1761139818785300000,3.212300048828125,-0.4145697355270386,-0.3159097731113434,-0.49315229058265686
1761139818795358200,3.222358154296875,-0.4602288007736206,-0.033321212977170944,-0.6000798344612122
1761139818805417000,3.2324169921875,-0.4895431101322174,0.23308181762695312,-0.686518132686615
1761139818815476200,3.242476318359375,-0.5118718147277832,0.44424518942832947,-0.7383297085762024
1761139818825534200,3.2525341796875,-0.5169302225112915,0.5572524666786194,-0.7568947076797485
1761139818835593000,3.262593017578125,-0.4796241223812103,0.5641974806785583,-0.6961562633514404
1761139818845652200,3.27265234375,-0.4017952084541321,0.5043008327484131,-0.528062641620636
1761139818855711000,3.2827109375,-0.3143143653869629,0.423312783241272,-0.27569910883903503
1761139818865769200,3.292769287109375,-0.22311978042125702,0.3455027937889099,0.02938895672559738
1761139818875828000,3.302827880859375,-0.14870120584964752,0.2628675699234009,0.3496873378753662
1761139818885887200,3.31288720703125,-0.1050010696053505,0.17724698781967163,0.6418651342391968
1761139818895946000,3.322946044921875,-0.10531824827194214,0.08802282810211182,0.8606582283973694
1761139818906004000,3.33300390625,-0.14085663855075836,0.024752231314778328,0.9630557298660278
1761139818916063000,3.34306298828125,-0.2002650946378708,-0.012763718143105507,0.9412585496902466
1761139818926122000,3.3531220703125,-0.27866554260253906,-0.03674355894327164,0.8143820762634277
1761139818936180200,3.36318017578125,-0.35139647126197815,-0.03590679168701172,0.6385697722434998
1761139818946239000,3.373239013671875,-0.42044854164123535,-0.027226990088820457,0.47332149744033813
1761139818956298200,3.38329833984375,-0.4938756227493286,-0.036063358187675476,0.3320469260215759
1761139818966357000,3.39335693359375,-0.5688856840133667,-0.0944923609495163,0.19283923506736755
1761139818976415200,3.403415283203125,-0.6244826316833496,-0.18260730803012848,0.04767671599984169
1761139818986474000,3.413473876953125,-0.6465657353401184,-0.30118638277053833,-0.1010778471827507
1761139818996533200,3.423533203125,-0.6299518942832947,-0.41566741466522217,-0.22994236648082733
1761139819006591000,3.433591064453125,-0.5959150791168213,-0.4804897904396057,-0.3331297039985657
1761139819016650000,3.44364990234375,-0.5481534004211426,-0.4665542542934418,-0.40087467432022095
1761139819026709000,3.453708984375,-0.4927217364311218,-0.3610425293445587,-0.41829046607017517
1761139819036768000,3.46376806640625,-0.4337867796421051,-0.200949564576149,-0.38184696435928345
1761139819046826200,3.473826171875,-0.38052475452423096,-0.044612906873226166,-0.30819934606552124
1761139819056885000,3.483885009765625,-0.36211350560188293,0.06487204134464264,-0.20228783786296844
1761139819066944000,3.493944091796875,-0.37830811738967896,0.1121923103928566,-0.09315589815378189
1761139819077003000,3.5040029296875,-0.41790640354156494,0.1365588903427124,0.0009700730443000793
1761139819087061200,3.514061279296875,-0.46728643774986267,0.15810377895832062,0.07343176752328873
1761139819097120000,3.5241201171875,-0.5085779428482056,0.18293510377407074,0.10767921805381775
1761139819107179300,3.53417919921875,-0.5256174802780151,0.20188187062740326,0.12212886661291122
1761139819117238000,3.544238037109375,-0.5231056213378906,0.2078191190958023,0.11785396188497543
1761139819127296000,3.5542958984375,-0.507793128490448,0.19165630638599396,0.08609092235565186
1761139819137355000,3.56435498046875,-0.4854204058647156,0.14690934121608734,0.02041710540652275
1761139819147414000,3.5744140625,-0.4674113392829895,0.07773207128047943,-0.08128698170185089
1761139819157472300,3.58447216796875,-0.4642608165740967,-0.005751903168857098,-0.21424822509288788
1761139819167531000,3.594531005859375,-0.4817444980144501,-0.05616672709584236,-0.3389977216720581
1761139819177590000,3.604590087890625,-0.5098070502281189,-0.02985469624400139,-0.4384622573852539
1761139819187649000,3.61464892578125,-0.5319843292236328,0.018563590943813324,-0.49775445461273193
1761139819197707300,3.624707275390625,-0.5363205075263977,0.06427382677793503,-0.5159627795219421
1761139819207766000,3.63476611328125,-0.5180462598800659,0.11057842522859573,-0.48255714774131775
1761139819217825300,3.6448251953125,-0.47286197543144226,0.1399642825126648,-0.4161136746406555
1761139819227884000,3.654884033203125,-0.41606488823890686,0.15934060513973236,-0.3334508240222931
1761139819237942000,3.66494189453125,-0.3551120460033417,0.13498707115650177,-0.24944885075092316
1761139819248001000,3.6750009765625,-0.30253538489341736,0.05179242417216301,-0.18702559173107147
1761139819258060800,3.685060791015625,-0.2531515657901764,-0.049134187400341034,-0.15416324138641357
1761139819268118500,3.695118408203125,-0.20614691078662872,-0.13128335773944855,-0.13892832398414612
1761139819278177800,3.705177734375,-0.16998782753944397,-0.1789691150188446,-0.13334287703037262
1761139819288236500,3.715236572265625,-0.15099921822547913,-0.19178065657615662,-0.1350133717060089
1761139819298295800,3.7252958984375,-0.15110334753990173,-0.18274801969528198,-0.13395902514457703
1761139819308353500,3.735353515625,-0.164444699883461,-0.16923944652080536,-0.14526201784610748
1761139819318412800,3.745412841796875,-0.17283551394939423,-0.1586507260799408,-0.15633811056613922
1761139819328471600,3.755471435546875,-0.17134372889995575,-0.1645880937576294,-0.15843813121318817
1761139819338529500,3.765529541015625,-0.16699877381324768,-0.18048715591430664,-0.1535901129245758
1761139819348588800,3.7755888671875,-0.16501106321811676,-0.17979872226715088,-0.1531914621591568
1761139819358647600,3.7856474609375,-0.16167758405208588,-0.1483614295721054,-0.16510272026062012
1761139819368706800,3.795706787109375,-0.1593242585659027,-0.12028347700834274,-0.17779982089996338
1761139819378764500,3.8057646484375,-0.15966247022151947,-0.09605031460523605,-0.18060386180877686
1761139819388823800,3.81582373046875,-0.16461849212646484,-0.10637568682432175,-0.18292245268821716
1761139819398882600,3.825882568359375,-0.17675718665122986,-0.14445115625858307,-0.1782749593257904
1761139819408941800,3.83594189453125,-0.1958903819322586,-0.1892523318529129,-0.15939944982528687
1761139819418999600,3.84599951171875,-0.227594792842865,-0.21755987405776978,-0.13978368043899536
1761139819429058800,3.856058837890625,-0.2669815123081207,-0.22083811461925507,-0.1275268942117691
1761139819439117600,3.86611767578125,-0.3041619062423706,-0.17974208295345306,-0.11756480485200882
1761139819449175600,3.876175537109375,-0.3302353322505951,-0.11536841839551926,-0.10776010900735855
1761139819459234800,3.88623486328125,-0.336967796087265,-0.03463336080312729,-0.0938408374786377
1761139819469293600,3.89629345703125,-0.31972700357437134,0.05017763748764992,-0.07502620667219162
1761139819479352800,3.906352783203125,-0.2824307680130005,0.12398794293403625,-0.06640902161598206
1761139819489410600,3.91641064453125,-0.23199363052845,0.1739254891872406,-0.06324348598718643
1761139819499469800,3.9264697265625,-0.1838974803686142,0.1941189020872116,-0.050320763140916824
1761139819509528600,3.936528564453125,-0.14706888794898987,0.19819088280200958,-0.03713438659906387
1761139819519587800,3.946587890625,-0.12843315303325653,0.21698853373527527,-0.02194930799305439
1761139819529645600,3.9566455078125,-0.12994423508644104,0.30711787939071655,-0.006442519836127758
1761139819539704800,3.966704833984375,-0.1397944688796997,0.45597100257873535,0.025004886090755463
1761139819549763600,3.976763671875,-0.16475780308246613,0.568358302116394,0.05502672120928764
1761139819559821600,3.986821533203125,-0.1806371659040451,0.586502194404602,0.0668165385723114
1761139819569880800,3.996880859375,-0.18952718377113342,0.5495843887329102,0.06639128178358078
1761139819579939600,4.006939697265625,-0.19053812325000763,0.5280311703681946,0.05069221183657646
1761139819589998800,4.016998779296875,-0.18306155502796173,0.5121268033981323,0.004969730041921139
1761139819600056600,4.027056640625,-0.16679443418979645,0.4905799329280853,-0.05553329363465309
1761139819610115800,4.03711572265625,-0.16189974546432495,0.4661530554294586,-0.12089141458272934
1761139819620174600,4.047174560546875,-0.17188340425491333,0.4307316839694977,-0.16641442477703094
1761139819630233900,4.05723388671875,-0.1930004060268402,0.3816976547241211,-0.21419189870357513
1761139819640291600,4.06729150390625,-0.21615472435951233,0.3307572603225708,-0.26580822467803955
1761139819650350600,4.0773505859375,-0.23150256276130676,0.2837044894695282,-0.2881362736225128
1761139819660409600,4.08740966796875,-0.25780102610588074,0.17297053337097168,-0.28360143303871155
1761139819670467600,4.097467529296875,-0.26784321665763855,0.10860901325941086,-0.18415552377700806
1761139819680526800,4.10752685546875,-0.26262715458869934,0.023088786751031876,-0.033048827201128006
1761139819690585600,4.117585693359375,-0.2438293695449829,-0.027390282601118088,0.16681453585624695
1761139819700644600,4.12764453125,-0.21453459560871124,-0.05327141284942627,0.3598119616508484
1761139819710702600,4.13770263671875,-0.178399920463562,-0.05784819275140762,0.5134803652763367
1761139819720761900,4.147761962890625,-0.13529986143112183,-0.012368859723210335,0.6050763726234436
1761139819730820600,4.157820556640625,-0.09926856309175491,0.06966078281402588,0.6460044384002686
1761139819740878600,4.167878662109375,-0.0933116003870964,0.1571461707353592,0.6394224166870117
1761139819750937600,4.1779375,-0.10148829221725464,0.22743164002895355,0.6045604348182678
1761139819760996600,4.18799658203125,-0.1195269450545311,0.2714981734752655,0.5731084942817688
1761139819771055600,4.1980556640625,-0.14415864646434784,0.2805754542350769,0.5473664999008179
1761139819781113600,4.208113525390625,-0.1641046553850174,0.25586771965026855,0.5263869166374207
1761139819791172900,4.2181728515625,-0.17124627530574799,0.19887153804302216,0.51378333568573
1761139819801231600,4.228231689453125,-0.16212335228919983,0.11481738835573196,0.5097392797470093
1761139819811290600,4.23829052734375,-0.15168596804141998,0.009449644014239311,0.5026113390922546
1761139819821348600,4.2483486328125,-0.14199605584144592,-0.10180604457855225,0.49359145760536194
1761139819831407900,4.258407958984375,-0.1417645812034607,-0.19918082654476166,0.4674000144004822
1761139819841466600,4.268466552734375,-0.149885892868042,-0.2700914740562439,0.43187397718429565
1761139819851524600,4.278524658203125,-0.17210465669631958,-0.31653738021850586,0.39626365900039673
1761139819861583600,4.28858349609375,-0.20435847342014313,-0.33464688062667847,0.35353270173072815
1761139819871642600,4.298642578125,-0.23580065369606018,-0.31722593307495117,0.3077200949192047
1761139819881701600,4.30870166015625,-0.26872560381889343,-0.2619253993034363,0.2685000002384186
1761139819891759600,4.318759521484375,-0.3047857880592346,-0.18796005845069885,0.22860054671764374
1761139819901819000,4.32881884765625,-0.33639296889305115,-0.11453749984502792,0.19677071273326874
1761139819911877600,4.338877685546875,-0.34756940603256226,-0.06858120113611221,0.17429710924625397
1761139819921936600,4.3489365234375,-0.34155434370040894,-0.04143799841403961,0.16738168895244598
1761139819931994600,4.35899462890625,-0.3062569797039032,-0.02459634840488434,0.19950903952121735
1761139819942054000,4.369053955078125,-0.2625475823879242,-0.011632081121206284,0.25456055998802185
1761139819952112600,4.379112548828125,-0.21538986265659332,0.016897855326533318,0.30714187026023865
1761139819962170600,4.389170654296875,-0.1714532971382141,0.05958486348390579,0.321577250957489
1761139819972229600,4.399229736328125,-0.13838915526866913,0.08335290849208832,0.28341928124427795
1761139819982288600,4.40928857421875,-0.12717005610466003,0.09784635901451111,0.2046174257993698
1761139819992347600,4.41934765625,-0.15429218113422394,0.09208068996667862,0.10495217889547348
1761139820002405600,4.429405517578125,-0.19730409979820251,0.021029412746429443,-0.0034272889606654644
1761139820012464600,4.439464599609375,-0.24361848831176758,-0.0983213484287262,-0.11076515913009644
1761139820022523600,4.449523681640625,-0.2898315191268921,-0.2770674228668213,-0.2173893302679062
1761139820032582000,4.459581787109375,-0.32540997862815857,-0.4939955472946167,-0.31711697578430176
1761139820042640600,4.469640625,-0.3529779613018036,-0.6913922429084778,-0.39576783776283264
1761139820052700000,4.479699951171875,-0.3809468150138855,-0.8131824731826782,-0.45803141593933105
1761139820062758700,4.489758544921875,-0.40125635266304016,-0.8485271334648132,-0.5022412538528442
1761139820072816600,4.499816650390625,-0.40546971559524536,-0.795457124710083,-0.5236255526542664
1761139820082875600,4.509875732421875,-0.3924516439437866,-0.6705024242401123,-0.5300163626670837
1761139820092934700,4.5199345703125,-0.3578498363494873,-0.5166283249855042,-0.5260370969772339
1761139820102993700,4.52999365234375,-0.3064177930355072,-0.38348621129989624,-0.4986838102340698
1761139820113051600,4.5400517578125,-0.24861806631088257,-0.3002528250217438,-0.44292065501213074
1761139820123110700,4.550110595703125,-0.20652760565280914,-0.2822432219982147,-0.3729998767375946
1761139820133169700,4.560169677734375,-0.18260055780410767,-0.33701732754707336,-0.29739147424697876
1761139820143227600,4.5702275390625,-0.17269574105739594,-0.4158911108970642,-0.22942572832107544
1761139820153286700,4.58028662109375,-0.1738067865371704,-0.49085646867752075,-0.17566636204719543
1761139820163345700,4.590345703125,-0.18605093657970428,-0.5237643718719482,-0.13368988037109375
1761139820173404700,4.60040478515625,-0.2097208946943283,-0.4960078299045563,-0.10666289180517197
1761139820183462700,4.610462646484375,-0.23209784924983978,-0.440809041261673,-0.09175717830657959
1761139820193521700,4.620521728515625,-0.26137807965278625,-0.37630924582481384,-0.09073731303215027
1761139820203580700,4.63058056640625,-0.2910883128643036,-0.305728018283844,-0.08190813660621643
1761139820213639700,4.6406396484375,-0.3357827663421631,-0.215553879737854,-0.08303907513618469
1761139820223697700,4.65069775390625,-0.3817313313484192,-0.13075269758701324,-0.10229133814573288
1761139820233756700,4.660756591796875,-0.4238177239894867,-0.04909751936793327,-0.12172333151102066
1761139820243815700,4.670815673828125,-0.4439983665943146,-0.00024955254048109055,-0.15765362977981567
1761139820253874000,4.6808740234375,-0.4524466395378113,-0.013017285615205765,-0.19930171966552734
1761139820263932700,4.6909326171875,-0.4531768560409546,-0.06670235097408295,-0.25133854150772095
1761139820273992000,4.700991943359375,-0.4554341435432434,-0.12921124696731567,-0.2836401164531708
1761139820284050700,4.71105078125,-0.45633429288864136,-0.18654271960258484,-0.29900068044662476
1761139820294108700,4.721108642578125,-0.4690909683704376,-0.22924606502056122,-0.3053622245788574
1761139820304167700,4.731167724609375,-0.4813777208328247,-0.2569224238395691,-0.2956502139568329
1761139820314226700,4.741226806640625,-0.4913158416748047,-0.23699109256267548,-0.2847672700881958
1761139820324284700,4.75128466796875,-0.5066012740135193,-0.17432211339473724,-0.27175000309944153
1761139820334343700,4.76134375,-0.5066778063774109,-0.09423647075891495,-0.255748450756073
1761139820344402700,4.771402587890625,-0.48116397857666016,-0.008419029414653778,-0.2375854253768921
1761139820354461700,4.781461669921875,-0.4287063479423523,0.04212328791618347,-0.21522367000579834
1761139820364520000,4.79152001953125,-0.3705349266529083,0.025367209687829018,-0.1867763251066208
1761139820374578700,4.80157861328125,-0.30520427227020264,-0.0684589222073555,-0.1673581898212433
1761139820384638000,4.811637939453125,-0.24186472594738007,-0.20491370558738708,-0.16128352284431458
1761139820394696700,4.82169677734375,-0.18759143352508545,-0.3173508048057556,-0.17030447721481323
1761139820404754700,4.831754638671875,-0.1521247923374176,-0.3639308214187622,-0.1943565458059311
1761139820414813700,4.841813720703125,-0.12634406983852386,-0.3536143898963928,-0.21454446017742157
1761139820424872700,4.851872802734375,-0.11135606467723846,-0.31337082386016846,-0.2296760082244873
1761139820434930700,4.8619306640625,-0.10159534960985184,-0.26552772521972656,-0.2120601087808609
1761139820444989700,4.87198974609375,-0.11545896530151367,-0.2263702154159546,-0.15188251435756683
1761139820455048700,4.882048583984375,-0.1283809244632721,-0.2210700809955597,-0.04481954872608185
1761139820465107700,4.892107666015625,-0.1562085747718811,-0.2144867479801178,0.08167207986116409
1761139820475166000,4.902166015625,-0.18262410163879395,-0.18697789311408997,0.21032781898975372
1761139820485224700,4.912224609375,-0.20163828134536743,-0.21631580591201782,0.312053918838501
1761139820495284000,4.922283935546875,-0.2352421134710312,-0.3138602375984192,0.3728589117527008
1761139820505341700,4.932341796875,-0.2737461030483246,-0.3698369562625885,0.40278351306915283
1761139820515400700,4.942400634765625,-0.29694852232933044,-0.356841117143631,0.39011329412460327
1761139820525459700,4.952459716796875,-0.3231353759765625,-0.2929084897041321,0.3325517475605011
1761139820535518700,4.962518798828125,-0.35141026973724365,-0.2302055060863495,0.2334352433681488
1761139820545576700,4.97257666015625,-0.3797058165073395,-0.20508071780204773,0.11035911738872528
1761139820555635700,4.9826357421875,-0.39288443326950073,-0.21880364418029785,-0.06104608625173569
1761139820565694700,4.99269482421875,-0.3905118405818939,-0.27673032879829407,-0.2655473053455353
1761139820575752700,5.002752685546875,-0.3811033070087433,-0.3141418993473053,-0.4654415547847748
1761139820585811700,5.012811767578125,-0.371969997882843,-0.3336586058139801,-0.6106134057044983
1761139820595870700,5.02287060546875,-0.3875000476837158,-0.38872984051704407,-0.7067210674285889
1761139820605929700,5.0329296875,-0.4235922694206238,-0.4506770968437195,-0.7753903865814209
1761139820615987700,5.04298779296875,-0.4591415226459503,-0.430258184671402,-0.8295273780822754
1761139820626046700,5.053046630859375,-0.4850088059902191,-0.26898089051246643,-0.8424370288848877
1761139820636105700,5.063105712890625,-0.47524410486221313,0.002450833097100258,-0.7529544234275818
1761139820646164700,5.073164794921875,-0.4209073483943939,0.3033403754234314,-0.5097750425338745
1761139820656222700,5.08322265625,-0.3145676851272583,0.4655410945415497,-0.19203025102615356
1761139820666281700,5.09328173828125,-0.15115265548229218,0.5571695566177368,0.17317809164524078
1761139820676340700,5.1033408203125,0.02860010229051113,0.5332145690917969,0.5408098101615906
1761139820686398700,5.113398681640625,0.14394719898700714,0.37807774543762207,0.8746581077575684
1761139820696457700,5.123457763671875,0.18594905734062195,0.14445140957832336,1.1561028957366943
1761139820706516700,5.133516845703125,0.1520691215991974,-0.12830714881420135,1.3290882110595703
1761139820716575700,5.14357568359375,0.06030017137527466,-0.3844338655471802,1.3576282262802124
1761139820726633700,5.1536337890625,-0.060904547572135925,-0.5781487226486206,1.2318370342254639
1761139820736692700,5.163692626953125,-0.20552463829517365,-0.7030876874923706,0.9660669565200806
1761139820746751700,5.173751708984375,-0.35008978843688965,-0.7339246869087219,0.6060302257537842
1761139820756809700,5.183809814453125,-0.47391223907470703,-0.6644527912139893,0.2388727068901062
1761139820766868700,5.19386865234375,-0.5634503960609436,-0.550981342792511,-0.04770500585436821
1761139820776927700,5.203927734375,-0.6379526853561401,-0.4645059108734131,-0.21906700730323792
1761139820786986800,5.21398681640625,-0.6876206398010254,-0.42501336336135864,-0.27908000349998474
1761139820797044700,5.224044677734375,-0.6994165182113647,-0.43030330538749695,-0.25306475162506104
1761139820807103700,5.234103759765625,-0.687737762928009,-0.4704107642173767,-0.17735640704631805
1761139820817162800,5.244162841796875,-0.6709433197975159,-0.49252721667289734,-0.08259712159633636
1761139820827221800,5.2542216796875,-0.6478310823440552,-0.47106826305389404,0.0030765063129365444
1761139820837279700,5.26427978515625,-0.6185895204544067,-0.39736005663871765,0.0767776370048523
1761139820847338800,5.2743388671875,-0.5891826152801514,-0.2948871850967407,0.13321293890476227
1761139820857397800,5.284397705078125,-0.5659200549125671,-0.18712136149406433,0.1692822128534317
1761139820867455700,5.294455810546875,-0.5461282730102539,-0.07343047857284546,0.17608658969402313
1761139820877514800,5.3045146484375,-0.5276426076889038,0.04766814038157463,0.16939659416675568
1761139820887573800,5.31457373046875,-0.5283036231994629,0.14191289246082306,0.154073566198349
1761139820897632800,5.3246328125,-0.5534000396728516,0.19705937802791595,0.12277276813983917
1761139820907690800,5.334690673828125,-0.6035670638084412,0.22043687105178833,0.09126544743776321
1761139820917749800,5.344749755859375,-0.6549316644668579,0.2177448719739914,0.06505800038576126
1761139820927808800,5.354808837890625,-0.6830649971961975,0.17835645377635956,0.06450539827346802
1761139820937867500,5.364867431640625,-0.6885491609573364,0.10701779276132584,0.08639279752969742
1761139820947925800,5.37492578125,-0.6822513341903687,0.04754727706313133,0.1183033287525177
1761139820957984800,5.38498486328125,-0.6575152277946472,0.005750525277107954,0.15063832700252533
1761139820968043800,5.395043701171875,-0.623241662979126,-0.019272269681096077,0.16322176158428192
1761139820978101800,5.405101806640625,-0.5864713788032532,-0.0168133731931448,0.15356114506721497
1761139820988160800,5.415160888671875,-0.5549890995025635,0.006583562586456537,0.10742826014757156
1761139820998219800,5.4252197265625,-0.5342851281166077,0.05707423761487007,0.030961548909544945
1761139821008278800,5.43527880859375,-0.5202468037605286,0.12460321187973022,-0.048704784363508224
1761139821018336800,5.445336669921875,-0.5106625556945801,0.15505775809288025,-0.11081800609827042
1761139821028395800,5.455395751953125,-0.507750928401947,0.14378434419631958,-0.13495023548603058
1761139821038454800,5.465454833984375,-0.50445556640625,0.09073245525360107,-0.11903131008148193
1761139821048512800,5.4755126953125,-0.5008032917976379,0.021634604781866074,-0.08646804094314575
1761139821058571800,5.48557177734375,-0.482561320066452,-0.03609161078929901,-0.046152710914611816
1761139821068630800,5.495630859375,-0.45607882738113403,-0.07406190037727356,-0.01986784115433693
1761139821078689800,5.505689697265625,-0.4337204098701477,-0.08848289400339127,-0.027998073026537895
1761139821088747800,5.515747802734375,-0.41991403698921204,-0.058388639241456985,-0.04874622821807861
1761139821098806500,5.525806640625,-0.4030478000640869,-0.0069371117278933525,-0.0758601725101471
1761139821108865800,5.53586572265625,-0.3829720914363861,0.039775002747774124,-0.09202529489994049
1761139821118924500,5.545924560546875,-0.36063152551651,0.06717032194137573,-0.09397130459547043
1761139821128982800,5.555982666015625,-0.34126314520835876,0.04452227056026459,-0.0772772803902626
1761139821139041500,5.56604150390625,-0.3282715976238251,-0.011558346450328827,-0.04808109626173973
1761139821149100800,5.576100830078125,-0.3299539089202881,-0.06590068340301514,-0.017608676105737686
1761139821159158800,5.58615869140625,-0.3488542437553406,-0.12053907662630081,-0.000524720293469727
1761139821169217800,5.5962177734375,-0.3705747127532959,-0.1459648162126541,0.004902535583823919
1761139821179276800,5.60627685546875,-0.38758039474487305,-0.15735210478305817,0.000021111685782670975
1761139821189335800,5.616335693359375,-0.3971664607524872,-0.18270008265972137,-0.012065911665558815
1761139821199393800,5.626393798828125,-0.40436702966690063,-0.21464404463768005,-0.021136783063411713
1761139821209452500,5.63645263671875,-0.41688573360443115,-0.25094640254974365,-0.012205071747303009
1761139821219511800,5.64651171875,-0.4340886175632477,-0.2884212136268616,-0.0016031726263463497
1761139821229569800,5.65656982421875,-0.45245295763015747,-0.31278300285339355,0.00813147984445095
1761139821239628800,5.66662890625,-0.463556706905365,-0.3190622925758362,0.0006812148494645953
1761139821249687600,5.6766875,-0.46957409381866455,-0.2806376814842224,-0.012711022980511189
1761139821259746000,5.68674609375,-0.5531319975852966,-0.1859893947839737,-0.011140778660774231
1761139821269804000,5.696803955078125,-0.39803346991539,-0.07202553004026413,0.010622306726872921
1761139821279863000,5.706863037109375,-0.5371763706207275,0.029615916311740875,0.05071595311164856
1761139821289922000,5.716922119140625,-0.3822688162326813,0.1192573830485344,0.07568947970867157
1761139821299980300,5.726980224609375,-0.49128103256225586,0.2318742871284485,0.1035369262099266
1761139821310039000,5.7370390625,-0.3221231698989868,0.33155959844589233,0.14215275645256042
1761139821320098000,5.74709814453125,-0.44913119077682495,0.39695993065834045,0.1812354326248169
1761139821330157000,5.757156982421875,-0.3512229919433594,0.41297829151153564,0.18758201599121094
1761139821340215300,5.76721533203125,-0.5319305062294006,0.2899608612060547,0.06392193585634232
1761139821350274000,5.777274169921875,-0.45816707611083984,0.04299023747444153,-0.229364275932312
1761139821360333300,5.787333251953125,-0.5963171720504761,-0.17977970838546753,-0.6081151962280273
1761139821370392000,5.79739208984375,-0.5022128224372864,-0.24149206280708313,-0.9078683853149414
1761139821380450000,5.807449951171875,-0.689539909362793,-0.27441030740737915,-1.0077651739120483
1761139821390509000,5.817509033203125,-0.7230368852615356,-0.2957936227321625,-0.9044592380523682
1761139821400568000,5.827568115234375,-0.9522838592529297,-0.38394424319267273,-0.6884060502052307
1761139821410626000,5.8376259765625,-0.9430357217788696,-0.43870922923088074,-0.43713095784187317
1761139821420685000,5.84768505859375,-1.0568296909332275,-0.4938355088233948,-0.186197429895401
1761139821430744000,5.857744140625,-0.9503969550132751,-0.5333930253982544,0.020610880106687546
1761139821440803000,5.867802978515625,-0.9567572474479675,-0.4873546361923218,0.22057197988033295
1761139821450861300,5.877861328125,-0.8160758018493652,-0.3068748712539673,0.3907836675643921
1761139821460920000,5.887920166015625,-0.774315595626831,-0.0940023884177208,0.5199651718139648
1761139821470979300,5.897979248046875,-0.6411681771278381,0.1289348304271698,0.581132173538208
1761139821481037000,5.908037109375,-0.6216470003128052,0.20972317457199097,0.6035613417625427
1761139821491096000,5.918095947265625,-0.5834841728210449,0.19728541374206543,0.5812070369720459
1761139821501155000,5.928155029296875,-0.625493586063385,0.09263569116592407,0.524836540222168
1761139821511214000,5.938214111328125,-0.6516546607017517,0.018822988495230675,0.4549000561237335
1761139821521272000,5.94827197265625,-0.6894994974136353,-0.057016145437955856,0.39298227429389954
1761139821531331000,5.9583310546875,-0.7072861790657043,-0.06575211137533188,0.34940311312675476
1761139821541390000,5.96839013671875,-0.6926192045211792,-0.06575633585453033,0.3422427177429199
1761139821551449000,5.978448974609375,-0.6988765597343445,-0.03783975541591644,0.3628332018852234
1761139821561507000,5.988507080078125,-0.6609827280044556,-0.05849561467766762,0.3950272798538208
1761139821571566000,5.998566162109375,-0.6935944557189941,-0.06850031018257141,0.41402146220207214
1761139821581625300,6.008625244140625,-0.6505826115608215,-0.11931832879781723,0.41305407881736755
1761139821591683000,6.01868310546875,-0.7206024527549744,-0.15952113270759583,0.38616305589675903
1761139821601742000,6.0287421875,-0.68402099609375,-0.2465643435716629,0.3410680592060089
1761139821611801000,6.038801025390625,-0.7864093780517578,-0.2770916521549225,0.2888434827327728
1761139821621860000,6.048860107421875,-0.7480335831642151,-0.3044198751449585,0.24361135065555573
1761139821631918000,6.05891796875,-0.8439733982086182,-0.2677164673805237,0.2189832329750061
1761139821641977000,6.06897705078125,-0.823368489742279,-0.2143404483795166,0.2210814505815506
1761139821652036000,6.0790361328125,-0.8170499205589294,-0.11615156382322311,0.26318520307540894
1761139821662095000,6.08909521484375,-0.7816764116287231,-0.008921402506530285,0.35398930311203003
1761139821672153000,6.099153076171875,-0.7322742342948914,0.09341748803853989,0.4691672921180725
1761139821682212000,6.109212158203125,-0.6887823343276978,0.13274656236171722,0.5749775767326355
1761139821692271000,6.11927099609375,-0.6638476848602295,0.08587891608476639,0.631123960018158
1761139821702329000,6.1293291015625,-0.6524795293807983,-0.017876282334327698,0.6396207213401794
1761139821712388000,6.13938818359375,-0.6549914479255676,-0.14557193219661713,0.6050212383270264
1761139821722447000,6.149447021484375,-0.6715195775032043,-0.25912362337112427,0.5487163066864014
1761139821732506000,6.159506103515625,-0.7023382186889648,-0.33904215693473816,0.4866545498371124
1761139821742564000,6.169564208984375,-0.7262271046638489,-0.36893823742866516,0.44465354084968567
1761139821752623000,6.179623046875,-0.7378107905387878,-0.3500702679157257,0.42971479892730713
1761139821762682000,6.18968212890625,-0.7483620643615723,-0.2865266799926758,0.41859138011932373
1761139821772740000,6.199739990234375,-0.7543728351593018,-0.21681471168994904,0.3889317512512207
1761139821782799000,6.209799072265625,-0.7543503046035767,-0.14876200258731842,0.3271295130252838
1761139821792858000,6.219858154296875,-0.7491267919540405,-0.09951909631490707,0.23489011824131012
1761139821802917000,6.229917236328125,-0.7351625561714172,-0.07095776498317719,0.15423822402954102
1761139821812975000,6.23997509765625,-0.724041223526001,-0.07098066806793213,0.10338887572288513
1761139821823034000,6.2500341796875,-0.7199981212615967,-0.0784260630607605,0.08033572882413864
1761139821833093000,6.260093017578125,-0.7083539366722107,-0.10629098117351532,0.097306989133358
1761139821843151000,6.270151123046875,-0.6939286589622498,-0.15443921089172363,0.1354595422744751
1761139821853210000,6.280210205078125,-0.6849319338798523,-0.2036008983850479,0.18238337337970734
1761139821863269000,6.29026904296875,-0.681610643863678,-0.25298815965652466,0.21154101192951202
1761139821873328000,6.300328125,-0.6722131371498108,-0.2870931625366211,0.20897425711154938
1761139821883386000,6.31038623046875,-0.6690714955329895,-0.30933472514152527,0.1801522672176361
1761139821893445000,6.320445068359375,-0.6571159958839417,-0.3020603060722351,0.161740243434906
1761139821903504100,6.330504150390625,-0.6476595997810364,-0.275786429643631,0.16351675987243652
1761139821913563100,6.340563232421875,-0.6285375952720642,-0.24821391701698303,0.16419826447963715
1761139821923621000,6.35062109375,-0.5969969630241394,-0.21399849653244019,0.1623949408531189
1761139821933680000,6.36068017578125,-0.5632608532905579,-0.17396213114261627,0.15004026889801025
1761139821943739100,6.3707392578125,-0.533470094203949,-0.13743501901626587,0.1253080666065216
1761139821953797000,6.380797119140625,-0.5093945860862732,-0.1235349178314209,0.09253175556659698
1761139821963856100,6.390856201171875,-0.48668915033340454,-0.1370508372783661,0.05542178452014923
1761139821973915100,6.4009150390625,-0.45928069949150085,-0.1756885051727295,0.030101250857114792
1761139821983974100,6.41097412109375,-0.44249042868614197,-0.238576278090477,0.030835337936878204
1761139821994032000,6.4210322265625,-0.43688875436782837,-0.2973130941390991,0.06507879495620728
1761139822004091100,6.431091064453125,-0.438218355178833,-0.3430957794189453,0.11022785305976868
1761139822014150100,6.441150146484375,-0.4394873380661011,-0.3832187056541443,0.14318259060382843
1761139822024208100,6.4512080078125,-0.4354856610298157,-0.39761582016944885,0.17153054475784302
1761139822034267100,6.46126708984375,-0.43537193536758423,-0.3752734959125519,0.17993254959583282
1761139822044326100,6.471326171875,-0.43481385707855225,-0.30980122089385986,0.16099005937576294
1761139822054385200,6.48138525390625,-0.4125748574733734,-0.22549939155578613,0.13189928233623505
1761139822064443100,6.491443115234375,-0.3850584328174591,-0.16244882345199585,0.09398994594812393
1761139822074502000,6.501501953125,-0.36368417739868164,-0.14800302684307098,0.07933084666728973
1761139822084561200,6.51156103515625,-0.3466308116912842,-0.17668886482715607,0.09024547040462494
1761139822094619100,6.521619140625,-0.34113672375679016,-0.24132724106311798,0.1116892546415329
1761139822104678100,6.53167822265625,-0.3478854298591614,-0.30110278725624084,0.1423412561416626
1761139822114737200,6.541737060546875,-0.36205556988716125,-0.3408432900905609,0.16008588671684265
1761139822124796200,6.551796142578125,-0.37399253249168396,-0.362377405166626,0.15520328283309937
1761139822134854100,6.561854248046875,-0.3773779571056366,-0.3482906222343445,0.12599880993366241
1761139822144913200,6.5719130859375,-0.3624725043773651,-0.31208866834640503,0.08182787895202637
1761139822154972200,6.58197216796875,-0.33735063672065735,-0.2629847824573517,0.027564637362957
1761139822165030000,6.59202978515625,-0.3070039451122284,-0.23927167057991028,-0.0060170297510921955
1761139822175089200,6.602089111328125,-0.2742907404899597,-0.2344803661108017,-0.002682219259440899
1761139822185148000,6.61214794921875,-0.24391107261180878,-0.24871964752674103,0.030487602576613426
1761139822195207200,6.622207275390625,-0.22143933176994324,-0.28066933155059814,0.0682661384344101
1761139822205265200,6.63226513671875,-0.20572030544281006,-0.3114626109600067,0.09890154004096985
1761139822215324200,6.64232421875,-0.20503240823745728,-0.3210497200489044,0.11617666482925415
1761139822225383200,6.652383056640625,-0.20865164697170258,-0.3029002845287323,0.11247780174016953
1761139822235441200,6.662441162109375,-0.21158431470394135,-0.3038065433502197,0.07784845679998398
1761139822245500200,6.672500244140625,-0.19839933514595032,-0.3222299814224243,0.028943300247192383
1761139822255559200,6.68255908203125,-0.16200031340122223,-0.29972201585769653,0.015290073119103909
1761139822265618200,6.6926181640625,-0.10654308646917343,-0.23229314386844635,0.046128708869218826
1761139822275676000,6.702676025390625,-0.02914843149483204,-0.14869412779808044,0.10425592958927155
1761139822285735200,6.712735107421875,0.0444982573390007,-0.11720503121614456,0.15720610320568085
1761139822295794000,6.7227939453125,0.0967302992939949,-0.15434733033180237,0.18367846310138702
1761139822305853200,6.732853271484375,0.13931050896644592,-0.22967231273651123,0.16989995539188385
1761139822315911200,6.7429111328125,0.1614600121974945,-0.3152486979961395,0.10254330188035965
1761139822325970200,6.75297021484375,0.1327599585056305,-0.3746335208415985,-0.005098555702716112
1761139822336029000,6.76302880859375,0.0696805939078331,-0.36627092957496643,-0.1528392732143402
1761139822346087200,6.773087158203125,-0.01813398115336895,-0.29301291704177856,-0.315012127161026
1761139822356146200,6.783146240234375,-0.12039004266262054,-0.17896917462348938,-0.4666213393211365
1761139822366205200,6.793205078125,-0.20184656977653503,-0.05823313072323799,-0.5798751711845398
1761139822376263200,6.80326318359375,-0.24670885503292084,0.04595878720283508,-0.6376397013664246
1761139822386322000,6.813322021484375,-0.2555638253688812,0.08542930334806442,-0.6438567638397217
1761139822396381200,6.823381103515625,-0.24088768661022186,0.06877176463603973,-0.6037469506263733
1761139822406440000,6.83343994140625,-0.21359653770923615,-0.026018045842647552,-0.5119112133979797
1761139822416498200,6.843498291015625,-0.1793200671672821,-0.1732327938079834,-0.3659135401248932
1761139822426557200,6.85355712890625,-0.15933705866336823,-0.32744523882865906,-0.17196926474571228
1761139822436616200,6.8636162109375,-0.14786416292190552,-0.4404740631580353,0.05176315829157829
1761139822446674200,6.873674072265625,-0.1466219127178192,-0.5063179731369019,0.2925172448158264
1761139822456733000,6.88373291015625,-0.16654928028583527,-0.5114821195602417,0.5148085951805115
1761139822466792200,6.893792236328125,-0.21029843389987946,-0.4914165437221527,0.6568152904510498
1761139822476851000,6.903850830078125,-0.2630130648612976,-0.4732266366481781,0.6779956817626953
1761139822486909200,6.9139091796875,-0.32086777687072754,-0.43726417422294617,0.6013748645782471
1761139822496968000,6.923968017578125,-0.3806770443916321,-0.37166598439216614,0.4490113854408264
1761139822507027200,6.934027099609375,-0.43746355175971985,-0.2925039529800415,0.26182830333709717
1761139822517085200,6.944085205078125,-0.4797811806201935,-0.25305694341659546,0.0797453299164772
1761139822527144200,6.954144287109375,-0.5068410038948059,-0.2436073273420334,-0.054063405841588974
1761139822537203200,6.964203125,-0.5312643051147461,-0.27448561787605286,-0.12616263329982758
1761139822547262200,6.97426220703125,-0.5611242055892944,-0.3265344798564911,-0.15983645617961884
1761139822557320200,6.9843203125,-0.5705164074897766,-0.34987494349479675,-0.1569807529449463
1761139822567379000,6.99437890625,-0.5611774325370789,-0.3371065557003021,-0.11805028468370438
1761139822577438200,7.004438232421875,-0.539493978023529,-0.29812824726104736,-0.06646165996789932
1761139822587496000,7.014495849609375,-0.5152363181114197,-0.22475393116474152,0.0018747660797089338
1761139822597555200,7.02455517578125,-0.49423256516456604,-0.1323518306016922,0.08609750121831894
1761139822607614000,7.034614013671875,-0.4813099801540375,-0.05444934964179993,0.17039741575717926
1761139822617673200,7.044673095703125,-0.4656388759613037,-0.002117436146363616,0.25662046670913696
1761139822627731200,7.054731201171875,-0.45137983560562134,0.027179956436157227,0.3102772831916809
1761139822637790200,7.064790283203125,-0.4250393211841583,0.04527187719941139,0.3236545920372009
1761139822647849000,7.074848876953125,-0.39503225684165955,0.06788923591375351,0.3046932816505432
1761139822657907000,7.084906982421875,-0.37321218848228455,0.0685901790857315,0.24252526462078094
1761139822667966200,7.09496630859375,-0.3748106360435486,0.03281490504741669,0.1506473422050476
1761139822678025000,7.10502490234375,-0.3976893126964569,-0.016042117029428482,0.04492783918976784
1761139822688084200,7.115084228515625,-0.43252435326576233,-0.05123738572001457,-0.04347528889775276
1761139822698142000,7.125141845703125,-0.4564584493637085,-0.06422482430934906,-0.09936784952878952
1761139822708201200,7.135201171875,-0.47300219535827637,-0.06653303653001785,-0.14211900532245636
1761139822718260000,7.145260009765625,-0.4805471897125244,-0.0738774985074997,-0.19864965975284576
1761139822728318200,7.155318115234375,-0.48226749897003174,-0.07139565795660019,-0.2678010165691376
1761139822738377200,7.165377197265625,-0.4613212049007416,-0.053132232278585434,-0.34660157561302185
1761139822748436200,7.175436279296875,-0.4285654127597809,-0.03959643840789795,-0.4331248104572296
1761139822758494200,7.185494140625,-0.377044141292572,-0.04000203683972359,-0.5170287489891052
1761139822768553000,7.195552978515625,-0.3096657991409302,-0.04802698642015457,-0.5688458681106567
1761139822778612200,7.2056123046875,-0.23892611265182495,-0.06874638050794601,-0.5715427994728088
1761139822788671000,7.2156708984375,-0.17970483005046844,-0.07084231823682785,-0.5331529378890991
1761139822798729200,7.225729248046875,-0.12300907075405121,-0.04773487150669098,-0.45112383365631104
1761139822808788000,7.2357880859375,-0.06925658136606216,-0.017516974359750748,-0.3394182324409485
1761139822818847200,7.24584716796875,-0.021020613610744476,-0.005533282645046711,-0.23375172913074493
1761139822828905200,7.2559052734375,0.019116565585136414,-0.03370559960603714,-0.14470161497592926
1761139822838964200,7.265964111328125,0.04226503148674965,-0.10368867963552475,-0.10543649643659592
1761139822849023000,7.27602294921875,0.041321273893117905,-0.16172733902931213,-0.09529044479131699
1761139822859081000,7.2860810546875,0.020100673660635948,-0.19926992058753967,-0.10243304073810577
1761139822869140200,7.29614013671875,-0.019687604159116745,-0.21748600900173187,-0.1185586154460907
1761139822879199000,7.306198974609375,-0.06881839781999588,-0.22193722426891327,-0.13719329237937927
1761139822889258200,7.31625830078125,-0.11060316115617752,-0.21431094408035278,-0.15701325237751007
1761139822899316000,7.32631591796875,-0.1399189829826355,-0.19795887172222137,-0.15833577513694763
1761139822909375200,7.336375244140625,-0.15873518586158752,-0.17638567090034485,-0.15157291293144226
1761139822919434000,7.34643408203125,-0.16642560064792633,-0.15035566687583923,-0.126095250248909
1761139822929492000,7.356491943359375,-0.16970615088939667,-0.13538822531700134,-0.1065860241651535
1761139822939551200,7.36655126953125,-0.17280474305152893,-0.1257033795118332,-0.09805778414011002
1761139822949610000,7.37660986328125,-0.17688775062561035,-0.1131235882639885,-0.09819302707910538
1761139822959669000,7.3866689453125,-0.19792938232421875,-0.10164802521467209,-0.11057405918836594
1761139822969727000,7.39672705078125,-0.22625668346881866,-0.07492060959339142,-0.1265331655740738
1761139822979786200,7.4067861328125,-0.25001633167266846,-0.05296684056520462,-0.1389533430337906
1761139822989845000,7.416844970703125,-0.2683766484260559,-0.04462802782654762,-0.1452280879020691
1761139822999903200,7.4269033203125,-0.2775152921676636,-0.049139685928821564,-0.15373875200748444
1761139823009962000,7.4369619140625,-0.27905189990997314,-0.052352454513311386,-0.15178683400154114
1761139823020021200,7.447021240234375,-0.2783142030239105,-0.03689253702759743,-0.14930635690689087
1761139823030080000,7.457080078125,-0.2807293236255646,-0.01852162927389145,-0.14179718494415283
1761139823040138000,7.467137939453125,-0.2800491452217102,-0.0010137418285012245,-0.14156602323055267
1761139823050197200,7.477197265625,-0.2760317623615265,0.0313192680478096,-0.1327611654996872
1761139823060256000,7.487256103515625,-0.26249733567237854,0.05290498957037926,-0.12283316999673843
1761139823070314200,7.497314208984375,-0.23896406590938568,0.056614816188812256,-0.10453725606203079
1761139823080373000,7.507373046875,-0.21571093797683716,0.04230964928865433,-0.08052700012922287
1761139823090432300,7.517432373046875,-0.18481570482254028,0.026646152138710022,-0.06095927953720093
1761139823100490000,7.527489990234375,-0.15213711559772491,0.02055363729596138,-0.045290570706129074
1761139823110549200,7.53754931640625,-0.11016689985990524,0.03396496921777725,-0.0391182079911232
1761139823120608000,7.54760791015625,-0.0784907341003418,0.05629664286971092,-0.048901863396167755
1761139823130667300,7.557667236328125,-0.05366244912147522,0.09980113059282303,-0.05887259170413017
1761139823140725200,7.567725341796875,-0.03338940069079399,0.16020642220973969,-0.060512032359838486
1761139823150784000,7.577783935546875,-0.0009999186731874943,0.21103334426879883,-0.05812456086277962
1761139823160843000,7.587843017578125,0.028724953532218933,0.2843610942363739,-0.029362421482801437
1761139823170901000,7.59790087890625,0.058105211704969406,0.3500854969024658,0.012963729910552502
1761139823180960300,7.607960205078125,0.07454863935709,0.32420065999031067,0.036965202540159225
1761139823191019000,7.61801904296875,0.07972443848848343,0.25365421175956726,0.04154689237475395
1761139823201077200,7.6280771484375,0.0647774487733841,0.19308088719844818,0.014421528205275536
1761139823211136000,7.638135986328125,0.03501321002840996,0.1544177234172821,-0.03088787943124771
1761139823221195300,7.6481953125,-0.01145495567470789,0.1488027274608612,-0.08747738599777222
1761139823231254000,7.65825390625,-0.061280619353055954,0.13498713076114655,-0.14577710628509521
1761139823241312000,7.66831201171875,-0.12162704765796661,0.1200300082564354,-0.21257664263248444
1761139823251371300,7.678371337890625,-0.18715763092041016,0.0642620101571083,-0.29845544695854187
1761139823261430000,7.688429931640625,-0.24471040070056915,-0.05095885321497917,-0.40745943784713745
1761139823271488000,7.698488037109375,-0.2817201614379883,-0.17896437644958496,-0.5016939043998718
1761139823281547000,7.708547119140625,-0.2974432110786438,-0.2692423462867737,-0.5457574725151062
1761139823291606000,7.71860595703125,-0.307033896446228,-0.32448437809944153,-0.511303722858429
1761139823301665000,7.7286650390625,-0.3140055239200592,-0.29268380999565125,-0.3986342251300812
1761139823311723000,7.738722900390625,-0.2922735810279846,-0.2171528935432434,-0.23751668632030487
1761139823321781800,7.74878173828125,-0.2189602106809616,-0.11572427302598953,-0.051075972616672516
1761139823331841000,7.758841064453125,-0.11900506913661957,-0.007534495089203119,0.13820599019527435
1761139823341899000,7.76889892578125,-0.03824577108025551,0.0339471660554409,0.26197588443756104
1761139823351958000,7.7789580078125,0.015132827684283257,0.025400061160326004,0.31265905499458313
1761139823362017000,7.78901708984375,0.052259959280490875,0.010928441770374775,0.3163169026374817
1761139823372075000,7.799074951171875,0.05916083976626396,-0.01421514805406332,0.27723193168640137
1761139823382134000,7.809134033203125,0.04187186434864998,-0.043823376297950745,0.2147776186466217
1761139823392193000,7.819193115234375,0.027427226305007935,-0.04695642367005348,0.1652653068304062
1761139823402252000,7.829251953125,0.016882173717021942,-0.0069054123014211655,0.14854677021503448
1761139823412309800,7.839309814453125,0.004158007446676493,0.05699744075536728,0.16778817772865295
1761139823422369000,7.849369140625,0.00041200523264706135,0.1282990574836731,0.20165665447711945
1761139823432427800,7.859427734375,0.014622882939875126,0.17512956261634827,0.23558923602104187
1761139823442486000,7.869486083984375,0.03193076699972153,0.18551188707351685,0.2496536523103714
1761139823452545000,7.879544921875,0.051680903881788254,0.1648346483707428,0.25639522075653076
1761139823462604000,7.88960400390625,0.057392850518226624,0.10392656177282333,0.247452050447464
1761139823472662000,7.899662109375,0.05054880678653717,0.03305809572339058,0.22450608015060425
1761139823482721000,7.909720947265625,0.03784792497754097,-0.04504575952887535,0.18117432296276093
1761139823492780000,7.919780029296875,0.015860503539443016,-0.11728987097740173,0.12781688570976257
1761139823502839000,7.929839111328125,-0.0051805987022817135,-0.16036063432693481,0.05937284603714943
1761139823512897000,7.93989697265625,-0.028231624513864517,-0.16805458068847656,-0.028269223868846893
1761139823522955800,7.949955810546875,-0.05858340486884117,-0.1403457224369049,-0.11234255135059357
1761139823533015000,7.96001513671875,-0.08626789599657059,-0.09060338884592056,-0.19086182117462158
1761139823543073000,7.970072998046875,-0.09865692257881165,-0.02001257613301277,-0.24343369901180267
1761139823553132000,7.980132080078125,-0.08868547528982162,0.056657347828149796,-0.2515275478363037
1761139823563191000,7.99019091796875,-0.06924466788768768,0.12823884189128876,-0.21852858364582062
1761139823573248800,8.000248779296875,-0.04414156451821327,0.1761927306652069,-0.15159176290035248
1761139823583308000,8.01030810546875,-0.017542976886034012,0.19553925096988678,-0.07352305948734283
1761139823593366800,8.02036669921875,0.010153166018426418,0.1658029854297638,-0.01435372419655323
1761139823603426000,8.030426025390625,0.015771370381116867,0.12063764035701752,0.03282444179058075
1761139823613484000,8.040484130859374,-0.012493724003434181,0.0491957888007164,0.04359438642859459
1761139823623543000,8.05054296875,-0.0717700943350792,-0.05286213755607605,0.014798158779740334
1761139823633601800,8.060601806640625,-0.13946175575256348,-0.1866542100906372,-0.06661484390497208
1761139823643660000,8.070659912109376,-0.19999568164348602,-0.3130931258201599,-0.18326528370380402
1761139823653719000,8.080718994140625,-0.22398875653743744,-0.3833836019039154,-0.3044724464416504
1761139823663778000,8.090778076171874,-0.21442827582359314,-0.3701932430267334,-0.39021292328834534
1761139823673837000,8.100837158203126,-0.20322373509407043,-0.3158928453922272,-0.4411100745201111
1761139823683894800,8.110894775390625,-0.1892474740743637,-0.24334831535816193,-0.4331221878528595
1761139823693954000,8.1209541015625,-0.16121865808963776,-0.16957548260688782,-0.3773791790008545
1761139823704012800,8.1310126953125,-0.12643963098526,-0.1283433586359024,-0.2836233973503113
1761139823714071000,8.141071044921874,-0.10022702068090439,-0.13754574954509735,-0.1858842521905899
1761139823724129800,8.1511298828125,-0.08891045302152634,-0.18915115296840668,-0.1051795557141304
1761139823734189000,8.16118896484375,-0.09858734905719757,-0.2593366205692291,-0.06663207709789276
1761139823744247000,8.1712470703125,-0.11802709102630615,-0.3315458297729492,-0.07354191690683365
1761139823754306000,8.18130615234375,-0.1544162482023239,-0.38910606503486633,-0.11331729590892792
1761139823764365000,8.191364990234375,-0.18988528847694397,-0.4304811954498291,-0.16450858116149902
1761139823774424000,8.201424072265626,-0.21936684846878052,-0.4167160987854004,-0.19852836430072784
1761139823784482000,8.21148193359375,-0.23512424528598785,-0.35854363441467285,-0.20688562095165253
1761139823794540800,8.221540771484374,-0.23203045129776,-0.2786933481693268,-0.1785142570734024
1761139823804600000,8.23160009765625,-0.21899189054965973,-0.19843049347400665,-0.12502147257328033
1761139823814658000,8.241657958984375,-0.1914793699979782,-0.14209865033626556,-0.05725274980068207
1761139823824717000,8.251717041015626,-0.17774677276611328,-0.11779917031526566,0.019353875890374184
1761139823834775800,8.26177587890625,-0.18623414635658264,-0.11864602565765381,0.09023484587669373
1761139823844834000,8.271833984375,-0.2119954377412796,-0.14880633354187012,0.14794714748859406
1761139823854893000,8.28189306640625,-0.24202360212802887,-0.2032613456249237,0.1789688915014267
1761139823864952000,8.2919521484375,-0.26992926001548767,-0.2588825523853302,0.1763342171907425
1761139823875011000,8.302010986328124,-0.29038289189338684,-0.30963313579559326,0.143764466047287
1761139823885068800,8.31206884765625,-0.3133918046951294,-0.35349032282829285,0.09530612081289291
1761139823895128000,8.322128173828125,-0.34256711602211,-0.35839030146598816,0.04154973849654198
1761139823905186800,8.332186767578126,-0.3606177568435669,-0.31993743777275085,0.010531105101108551
1761139823915245000,8.3422451171875,-0.37020906805992126,-0.28832101821899414,0.004786061588674784
1761139823925304000,8.352303955078124,-0.36688199639320374,-0.28733059763908386,0.013312970288097858
1761139823935363000,8.362363037109375,-0.36802101135253906,-0.32001569867134094,0.016093937680125237
1761139823945421000,8.372421142578125,-0.35631081461906433,-0.3587404787540436,0.015710175037384033
1761139823955480000,8.38247998046875,-0.33514323830604553,-0.35726210474967957,0.012575628235936165
1761139823965539000,8.3925390625,-0.29990509152412415,-0.32642269134521484,0.02415079064667225
1761139823975598000,8.40259814453125,-0.27078911662101746,-0.2669081389904022,0.0573941171169281
1761139823985656000,8.412656005859375,-0.2619130611419678,-0.1660294383764267,0.12538541853427887
1761139823995714800,8.42271484375,-0.2568669021129608,-0.06098984181880951,0.20203359425067902
1761139824005774000,8.432774169921874,-0.24483314156532288,0.056796178221702576,0.2819361388683319
1761139824015832000,8.44283203125,-0.21862035989761353,0.15966157615184784,0.330260306596756
1761139824025891000,8.45289111328125,-0.1903919130563736,0.2260318100452423,0.3363000750541687
1761139824035949800,8.46294970703125,-0.13684678077697754,0.3524366617202759,0.2742883265018463
1761139824046009000,8.473009033203125,-0.0341760478913784,0.5072497129440308,0.1343536078929901
1761139824056067000,8.483067138671874,0.06111684814095497,0.6179926991462708,-0.09098899364471436
1761139824066125800,8.493125732421875,0.12090375274419785,0.7236887812614441,-0.33889040350914
1761139824076185000,8.50318505859375,0.14881014823913574,0.8080456852912903,-0.5274704694747925
1761139824086242800,8.513242919921876,0.16026972234249115,0.9658629894256592,-0.5947805047035217
1761139824096302000,8.523302001953125,0.16592267155647278,1.137595295906067,-0.5590578317642212
1761139824106360800,8.53336083984375,0.1733611524105072,1.1176695823669434,-0.4533580243587494
1761139824116419000,8.543419189453125,0.1610950231552124,0.8375802636146545,-0.27640318870544434
1761139824126478000,8.55347802734375,0.04110843688249588,0.5439507365226746,-0.052096568048000336
1761139824136537000,8.563537109375,-0.17058292031288147,0.3089311420917511,0.15759412944316864
1761139824146595000,8.573594970703125,-0.36172571778297424,0.1236819252371788,0.26908814907073975
1761139824156653800,8.58365380859375,-0.46870872378349304,0.04567238315939903,0.31760379672050476
1761139824166713000,8.593713134765625,-0.4884012043476105,0.052794475108385086,0.3668381869792938
1761139824176771800,8.603771728515625,-0.46601226925849915,0.10055506974458694,0.45002657175064087
1761139824186830000,8.613830078125,-0.4296894371509552,0.1298341304063797,0.5354596972465515
1761139824196888800,8.623888916015625,-0.40282246470451355,0.10570014268159866,0.5941367149353027
1761139824206948000,8.633947998046875,-0.4035646915435791,-0.000973572488874197,0.5942201018333435
1761139824217006000,8.644006103515625,-0.44283100962638855,-0.18216152489185333,0.5418782234191895
1761139824227065000,8.654065185546875,-0.5172418355941772,-0.4023943245410919,0.44440653920173645
1761139824237123800,8.664123779296874,-0.6173972487449646,-0.6044826507568359,0.30023691058158875
1761139824247183000,8.67418310546875,-0.7204373478889465,-0.740019679069519,0.131226047873497
1761139824257240800,8.68424072265625,-0.8254482746124268,-0.8058157563209534,-0.049457743763923645
1761139824267299800,8.6942998046875,-0.9074869751930237,-0.7545914649963379,-0.20308725535869598
1761139824277358800,8.70435888671875,-0.9505491852760315,-0.6339182257652283,-0.311326801776886
1761139824287416600,8.71441650390625,-0.9434302449226379,-0.49364471435546875,-0.37156111001968384
1761139824297475800,8.724475830078125,-0.8791014552116394,-0.35339123010635376,-0.3761868178844452
1761139824307534600,8.73453466796875,-0.776016354560852,-0.2527247965335846,-0.3383387625217438
1761139824317592800,8.7445927734375,-0.646030843257904,-0.21005237102508545,-0.2721517086029053
1761139824327651800,8.75465185546875,-0.5151793360710144,-0.19746600091457367,-0.17653198540210724
1761139824337710800,8.7647109375,-0.39610397815704346,-0.21450082957744598,-0.07663961499929428
1761139824347769900,8.774769775390626,-0.30530083179473877,-0.2485022097826004,0.010187959298491478
1761139824357827800,8.784827880859375,-0.25664660334587097,-0.280543714761734,0.05887698382139206
1761139824367886800,8.794886962890626,-0.2301313579082489,-0.2812015116214752,0.07008489966392517
1761139824377945900,8.80494580078125,-0.2093999832868576,-0.254087895154953,0.054402340203523636
1761139824388003800,8.81500390625,-0.1889495700597763,-0.2172129601240158,0.03512691333889961
1761139824398062600,8.8250625,-0.1674516350030899,-0.1819380670785904,0.010528923943638802
1761139824408121900,8.835121826171875,-0.14124266803264618,-0.17060258984565735,-0.00961282942444086
1761139824418179800,8.845179931640626,-0.10686689615249634,-0.1851871907711029,-0.018840251490473747
1761139824428238800,8.85523876953125,-0.07427246868610382,-0.22468586266040802,-0.024240875616669655
1761139824438297900,8.8652978515625,-0.06514787673950195,-0.27922123670578003,-0.03439495712518692
1761139824448356900,8.87535693359375,-0.06867523491382599,-0.3409767746925354,-0.05014275759458542
1761139824458414800,8.885414794921875,-0.07249069213867188,-0.3939918279647827,-0.07615924626588821
1761139824468473900,8.895473876953124,-0.08119150996208191,-0.40810713171958923,-0.11297451704740524
1761139824478532900,8.905532958984375,-0.09144989401102066,-0.394962340593338,-0.17223656177520752
1761139824488590600,8.915590576171875,-0.09362569451332092,-0.35842910408973694,-0.24274136126041412
1761139824498649900,8.92564990234375,-0.0849725529551506,-0.3101246953010559,-0.2990858554840088
1761139824508708600,8.93570849609375,-0.0716860443353653,-0.26860734820365906,-0.33067333698272705
1761139824518766800,8.945766845703124,-0.06737571954727173,-0.2346900999546051,-0.314466655254364
1761139824528825900,8.955825927734375,-0.0762360543012619,-0.23045887053012848,-0.28337347507476807
1761139824538884900,8.965884765625,-0.08554289489984512,-0.23763491213321686,-0.2536841630935669
1761139824548944000,8.97594384765625,-0.0981159508228302,-0.2334500253200531,-0.23267342150211334
1761139824559001900,8.986001953125,-0.09476935863494873,-0.24545034766197205,-0.22284561395645142
1761139824569060900,8.996060791015625,-0.0820908471941948,-0.2240622341632843,-0.21821677684783936
1761139824579119900,9.006119873046876,-0.08941836655139923,-0.16727641224861145,-0.22485233843326569
1761139824589177900,9.016177734375,-0.12391935288906097,-0.09656042605638504,-0.23594947159290314
1761139824599236600,9.026236572265624,-0.15164253115653992,-0.053139034658670425,-0.2652672231197357
1761139824609296000,9.0362958984375,-0.15617549419403076,-0.0244717039167881,-0.2991951107978821
1761139824619353900,9.046353759765625,-0.14206714928150177,-0.022810272872447968,-0.3177284002304077
1761139824629412900,9.056412841796876,-0.13454291224479675,-0.035374533385038376,-0.31221139430999756
1761139824639471900,9.066471923828125,-0.15788263082504272,-0.0545651949942112,-0.2606565058231354
1761139824649531000,9.07653076171875,-0.18068142235279083,-0.08810505270957947,-0.19666501879692078
1761139824659588900,9.0865888671875,-0.1964094042778015,-0.09064424782991409,-0.1187472715973854
1761139824669648000,9.09664794921875,-0.20890522003173828,-0.09687897562980652,-0.029804881662130356
1761139824679707000,9.106706787109376,-0.20596492290496826,-0.11193051934242249,0.04766982048749924
1761139824689764900,9.116764892578125,-0.19542066752910614,-0.1347053349018097,0.09769969433546066
1761139824699823900,9.126823974609374,-0.19203639030456543,-0.16200251877307892,0.09831220656633377
1761139824709882600,9.136882568359376,-0.1737934648990631,-0.17890772223472595,0.0567099004983902
1761139824719940900,9.14694091796875,-0.14808125793933868,-0.17534202337265015,-0.00045754422899335623
1761139824730000000,9.156999755859376,-0.11536458879709244,-0.15004518628120422,-0.04244068264961243
1761139824740059000,9.167058837890625,-0.0940970778465271,-0.11823619902133942,-0.07069209963083267
1761139824750118000,9.177117919921875,-0.08448732644319534,-0.09193907678127289,-0.08672166615724564
1761139824760175600,9.187175537109376,-0.08899197727441788,-0.07109531760215759,-0.0910537987947464
1761139824770235000,9.19723486328125,-0.0998731255531311,-0.053846556693315506,-0.08203739672899246
1761139824780293600,9.207293701171874,-0.11268791556358337,-0.027628498151898384,-0.06107750162482262
1761139824790352000,9.217351806640625,-0.11467010527849197,0.006630673073232174,-0.046155545860528946
1761139824800410600,9.22741064453125,-0.07147005945444107,0.09997522830963135,-0.05335358902812004
1761139824810470000,9.237469970703126,0.044513802975416183,0.2468496412038803,-0.0869019627571106
1761139824820527900,9.24752783203125,0.21078558266162872,0.40597206354141235,-0.09854938834905624
1761139824830587000,9.2575869140625,0.3860340714454651,0.5372693538665771,-0.06981094926595688
1761139824840646000,9.26764599609375,0.5396791696548462,0.6346713900566101,-0.001595031120814383
1761139824850705000,9.277704833984375,0.6769941449165344,0.7137702107429504,0.08431028574705124
1761139824860763000,9.287762939453126,0.7938634753227234,0.8438072800636292,0.17925065755844116
1761139824870821600,9.297821533203125,0.8400629758834839,1.0031121969223022,0.2701297104358673
1761139824880881000,9.307880859375,0.8084039688110352,1.0720707178115845,0.3196393549442291
1761139824890939000,9.31793896484375,0.7209880948066711,1.033190369606018,0.31907156109809875
1761139824900998000,9.327997802734375,0.6193472743034363,0.9143891334533691,0.2974921464920044
1761139824911056600,9.338056640625,0.4974312484264374,0.7231499552726746,0.2584179937839508
1761139824921115000,9.348114990234375,0.3694189488887787,0.4818357527256012,0.18907147645950317
1761139824931174000,9.358173828125,0.23239105939865112,0.18700329959392548,0.07042419910430908
1761139824941233000,9.36823291015625,0.10491025447845459,-0.14909151196479797,-0.10705136507749557
1761139824951292000,9.3782919921875,0.012847435660660267,-0.4543731212615967,-0.3046824038028717
1761139824961349600,9.388349609375,-0.035100046545267105,-0.6273287534713745,-0.4297511875629425
1761139824971409000,9.398408935546875,-0.08127473294734955,-0.7216177582740784,-0.4556099474430084
1761139824981467600,9.408467529296875,-0.11273258924484253,-0.7129050493240356,-0.35940027236938477
1761139824991526000,9.41852587890625,-0.11499947309494019,-0.6300373077392578,-0.15775182843208313
1761139825001585000,9.4285849609375,-0.09541454166173935,-0.49053892493247986,0.10775966197252274
1761139825011644000,9.438643798828124,-0.06049490347504616,-0.2982134222984314,0.374391108751297
1761139825021702000,9.448701904296875,-0.0033777072094380856,-0.11912599205970764,0.5705943703651428
1761139825031761000,9.458760986328125,0.06412037461996078,-0.013804101385176182,0.6557942032814026
1761139825041820000,9.46881982421875,0.12324448674917221,0.026235872879624367,0.6707744002342224
1761139825051879000,9.47887890625,0.14134731888771057,0.03785470873117447,0.6542319059371948
1761139825061937000,9.48893701171875,0.12037691473960876,0.032091591507196426,0.6337907910346985
1761139825071995600,9.49899560546875,0.0905417874455452,0.016136862337589264,0.6226279139518738
1761139825082055000,9.509054931640625,0.0781499445438385,-0.004281363449990749,0.6344466805458069
1761139825092113000,9.51911279296875,0.07992681115865707,-0.044247422367334366,0.6547679901123047
1761139825102172000,9.529171875,0.07735022902488708,-0.10903140902519226,0.6542630791664124
1761139825112230700,9.539230712890625,0.08538419008255005,-0.18770544230937958,0.6153034567832947
1761139825122288600,9.54928857421875,0.1069507971405983,-0.2532458007335663,0.5308048129081726
1761139825132348000,9.559347900390625,0.11775097995996475,-0.30584481358528137,0.39442917704582214
1761139825142406700,9.56940673828125,0.10906662791967392,-0.34128743410110474,0.21603286266326904
1761139825152465000,9.57946484375,0.0867898166179657,-0.341979056596756,0.0360734760761261
1761139825162523600,9.589523681640625,0.0419965498149395,-0.28587549924850464,-0.10222730785608292
1761139825172583000,9.5995830078125,-0.005695071537047625,-0.1880304217338562,-0.18297994136810303
1761139825182641700,9.6096416015625,-0.05243343487381935,-0.08787654340267181,-0.21705985069274902
1761139825192700000,9.619699951171874,-0.10280206799507141,0.015574753284454346,-0.21754054725170135
1761139825202759000,9.629759033203126,-0.15794211626052856,0.09952743351459503,-0.19984298944473267
1761139825212818000,9.63981787109375,-0.20055003464221954,0.1439276486635208,-0.18896450102329254
1761139825222876000,9.6498759765625,-0.2169312685728073,0.15270844101905823,-0.1767520010471344
1761139825232934700,9.6599345703125,-0.20478831231594086,0.14314183592796326,-0.15085968375205994
1761139825242994000,9.669993896484375,-0.18024156987667084,0.1286945343017578,-0.12116753309965134
1761139825253052700,9.680052734375,-0.15052734315395355,0.13743849098682404,-0.0948384627699852
1761139825263111400,9.690111328125,-0.11424348503351212,0.17197930812835693,-0.08085955679416656
1761139825273170200,9.700170166015624,-0.06820648908615112,0.2066776305437088,-0.08880749344825745
1761139825283229400,9.7102294921875,-0.02249319478869438,0.220276340842247,-0.11965351551771164
1761139825293287200,9.720287109375,0.019071292132139206,0.20185072720050812,-0.1644984930753708
1761139825303346400,9.730346435546876,0.04930606484413147,0.16401226818561554,-0.21017056703567505
1761139825313405200,9.7404052734375,0.07759308815002441,0.13708478212356567,-0.25154542922973633
1761139825323463200,9.750463134765624,0.11609827727079391,0.14874204993247986,-0.3013499677181244
1761139825333522400,9.7605224609375,0.1651044338941574,0.20297785103321075,-0.3619464933872223
1761139825343581200,9.770581298828125,0.21586187183856964,0.2824339270591736,-0.430460661649704
1761139825353639400,9.780639404296876,0.2558566927909851,0.32165536284446716,-0.49496373534202576
1761139825363698200,9.7906982421875,0.2800966799259186,0.3137347400188446,-0.5229052305221558
1761139825373757400,9.80075732421875,0.2773267328739166,0.2781578600406647,-0.47408121824264526
1761139825383816200,9.810816162109376,0.2510084807872772,0.24308551847934723,-0.3638001084327698
1761139825393874400,9.82087451171875,0.20558054745197296,0.20923647284507751,-0.20905473828315735
1761139825403933200,9.83093310546875,0.14201156795024872,0.17624101042747498,-0.04925623536109924
1761139825413992400,9.840992431640625,0.07740487903356552,0.11709832400083542,0.07770384103059769
1761139825424050400,9.851050537109375,0.02382580190896988,0.05453747510910034,0.12776727974414825
1761139825434109200,9.861109130859376,-0.006572050508111715,0.0009389612823724747,0.10123473405838013
1761139825444168400,9.87116845703125,-0.025052376091480255,-0.04958314076066017,0.025203755125403404
1761139825454226200,9.88122607421875,-0.02388351410627365,-0.07918284088373184,-0.06428325176239014
1761139825464285400,9.891285400390625,-0.007744542323052883,-0.08023630827665329,-0.11678899824619293
1761139825474344200,9.90134423828125,0.005935849621891975,-0.05694670230150223,-0.11860261112451553
1761139825484403500,9.911403564453124,0.011029793880879879,-0.04654576629400253,-0.07565093040466309
1761139825494461200,9.921461181640625,0.02539248764514923,-0.045352667570114136,0.005367486272007227
1761139825504520400,9.9315205078125,0.03763860464096069,-0.06137296184897423,0.10826487839221954
1761139825514579200,9.9415791015625,0.04761480540037155,-0.11346518993377686,0.20131811499595642
1761139825524637200,9.95163720703125,0.06559941172599792,-0.18793782591819763,0.25624334812164307
1761139825534696400,9.961696533203124,0.0903172716498375,-0.2694406807422638,0.2862031161785126
1761139825544755200,9.971755126953125,0.0940215140581131,-0.3520521819591522,0.284609317779541
1761139825554813400,9.9818134765625,0.08679662644863129,-0.3990601599216461,0.26885539293289185
1761139825564872200,9.9918720703125,0.0747755616903305,-0.4251042604446411,0.23217909038066864
1761139825574931500,10.001931396484375,0.05695768818259239,-0.4205566644668579,0.18420596420764923
1761139825584990200,10.011990234375,0.037836093455553055,-0.3768444061279297,0.12930159270763397
1761139825595048400,10.02204833984375,0.019464543089270592,-0.3174324929714203,0.0692792683839798
1761139825605107200,10.032107177734375,0.01212395541369915,-0.250365287065506,0.017705602571368217
1761139825615166500,10.04216650390625,0.016180215403437614,-0.18693411350250244,-0.024184590205550194
1761139825625224400,10.052224365234375,0.02704559452831745,-0.14094789326190948,-0.058368586003780365
1761139825635283200,10.062283203125,0.041392046958208084,-0.11256206780672073,-0.09057898819446564
1761139825645342500,10.072342529296876,0.0598817877471447,-0.08876132220029831,-0.09692949056625366
1761139825655400200,10.082400146484375,0.07201648503541946,-0.08587392419576645,-0.08120778203010559
1761139825665459500,10.09245947265625,0.07272758334875107,-0.09955823421478271,-0.03920457512140274
1761139825675518200,10.102518310546875,0.07356195151805878,-0.1255219280719757,0.009745660237967968
1761139825685577500,10.112577392578125,0.08303911983966827,-0.16120846569538116,0.045710332691669464
1761139825695635200,10.12263525390625,0.0890088602900505,-0.19819365441799164,0.0784645527601242
1761139825705694200,10.132694091796875,0.09497459977865219,-0.24203471839427948,0.09431798756122589
1761139825715753200,10.142753173828124,0.11450515687465668,-0.29200121760368347,0.09556781500577927
1761139825725811200,10.152811279296875,0.13935959339141846,-0.33836880326271057,0.08973866701126099
1761139825735870500,10.162870361328125,0.16379383206367493,-0.3636262118816376,0.08143200725317001
1761139825745929200,10.17292919921875,0.1873207688331604,-0.36908403038978577,0.07205609232187271
1761139825755987500,10.182987548828125,0.20463824272155762,-0.361298531293869,0.0663132518529892
1761139825766046200,10.193046142578124,0.19667308032512665,-0.3450782895088196,0.06646907329559326
1761139825776105500,10.20310546875,0.1616562455892563,-0.30649280548095703,0.08540015667676926
1761139825786164200,10.213164306640625,0.12187787145376205,-0.2235657423734665,0.13368457555770874
1761139825796222200,10.22322216796875,0.0893886387348175,-0.0958208292722702,0.21336129307746887
1761139825806281200,10.23328125,0.057773932814598083,-0.018017036840319633,0.2799430787563324
1761139825816340200,10.24334033203125,0.029995298013091087,-0.057070694863796234,0.3085470199584961
1761139825826398500,10.2533984375,0.017664380371570587,-0.1180875226855278,0.3150186836719513
1761139825836457200,10.263457275390625,0.0034574801102280617,-0.16603879630565643,0.2903066873550415
1761139825846516500,10.2735166015625,-0.024824026972055435,-0.1940375566482544,0.2213740050792694
1761139825856574200,10.28357421875,-0.051475077867507935,-0.19388149678707123,0.10877715796232224
1761139825866633500,10.293633544921875,-0.06840689480304718,-0.15619982779026031,-0.03750937804579735
1761139825876692200,10.303692138671876,-0.062034208327531815,-0.1036926731467247,-0.1913791000843048
1761139825886751500,10.31375146484375,-0.0533897764980793,-0.0886501893401146,-0.363280713558197
1761139825896809200,10.323809326171874,-0.05321773514151573,-0.09398077428340912,-0.5300009846687317
1761139825906868200,10.3338681640625,-0.06879575550556183,-0.10659784078598022,-0.678740382194519
1761139825916927200,10.34392724609375,-0.08733615279197693,-0.12252647429704666,-0.765177309513092
1761139825926985200,10.353985107421876,-0.10514263063669205,-0.11678621917963028,-0.777680516242981
1761139825937044500,10.36404443359375,-0.12192746996879578,-0.10578790307044983,-0.7265030741691589
1761139825947103200,10.374103271484374,-0.13317663967609406,-0.09975066035985947,-0.6369594931602478
1761139825957161500,10.384161376953125,-0.1310405284166336,-0.04975114390254021,-0.5241693258285522
1761139825967220200,10.39422021484375,-0.10081055760383606,0.023638378828763962,-0.412013441324234
1761139825977279500,10.404279541015624,-0.04802776500582695,0.07411486655473709,-0.28392496705055237
1761139825987338200,10.414338134765625,0.023579241707921028,0.0963883325457573,-0.106588214635849
1761139825997396200,10.424396240234374,0.09635810554027557,0.09711883962154388,0.1244434043765068
1761139826007455200,10.434455322265626,0.16006548702716827,0.08549714833498001,0.3627287745475769
1761139826017514200,10.44451416015625,0.2098942995071411,0.04827946797013283,0.5360986590385437
1761139826027572500,10.454572509765624,0.24165411293506622,-0.017356043681502342,0.6049299836158752
1761139826037631200,10.46463134765625,0.263514906167984,-0.07204965502023697,0.5824547410011292
1761139826047690500,10.4746904296875,0.24865832924842834,-0.1121441125869751,0.4877835810184479
1761139826057748200,10.484748291015626,0.18981711566448212,-0.13874508440494537,0.34374865889549255
1761139826067807200,10.49480712890625,0.0936012864112854,-0.1573145091533661,0.17981268465518951
1761139826077866200,10.5048662109375,-0.033509258180856705,-0.16403180360794067,0.04508655518293381
1761139826087925200,10.51492529296875,-0.15293918550014496,-0.1776929795742035,-0.01206699013710022
1761139826097983500,10.5249833984375,-0.2391505092382431,-0.19428767263889313,0.016383826732635498
1761139826108042200,10.535042236328126,-0.2894479036331177,-0.19729892909526825,0.09455394744873047
1761139826118101200,10.545101318359375,-0.2961942255496979,-0.17588205635547638,0.1924876868724823
1761139826128159200,10.5551591796875,-0.26502636075019836,-0.14309817552566528,0.2886633574962616
1761139826138218500,10.565218505859375,-0.23135735094547272,-0.10895298421382904,0.3471551537513733
1761139826148277200,10.57527734375,-0.21459037065505981,-0.07676225900650024,0.3643627166748047
1761139826158335200,10.585335205078126,-0.21077486872673035,-0.049550611525774,0.34180814027786255
1761139826168394200,10.595394287109375,-0.21792180836200714,-0.017956998199224472,0.2899358868598938
1761139826178453200,10.605453369140625,-0.22401246428489685,0.03908471763134003,0.2266458421945572
1761139826188512300,10.61551220703125,-0.21397514641284943,0.14134059846401215,0.1660832017660141
1761139826198570200,10.6255703125,-0.1841924786567688,0.2707582414150238,0.13158674538135529
1761139826208629200,10.635629150390624,-0.1373121440410614,0.43500006198883057,0.11240413784980774
1761139826218688300,10.645688232421875,-0.07766081392765045,0.5667335987091064,0.09694795310497284
1761139826228746500,10.65574658203125,-0.038195446133613586,0.6819727420806885,0.06392146646976471
1761139826238805200,10.66580517578125,-0.03182649612426758,0.7257050275802612,-0.00025325885508209467
1761139826248864500,10.675864501953125,-0.06507112830877304,0.7063863277435303,-0.08706222474575043
1761139826258922200,10.685922119140624,-0.14453427493572235,0.6216288208961487,-0.1772264689207077
1761139826268981500,10.6959814453125,-0.2390344887971878,0.504440426826477,-0.25490933656692505
1761139826279040300,10.706040283203125,-0.324176549911499,0.39232298731803894,-0.3024803102016449
1761139826289098200,10.71609814453125,-0.37481656670570374,0.3069770634174347,-0.32231056690216064
1761139826299157500,10.726157470703125,-0.3754653036594391,0.2549242675304413,-0.3273841440677643
1761139826309216300,10.73621630859375,-0.32840749621391296,0.21365077793598175,-0.33223143219947815
1761139826319275300,10.746275146484376,-0.2660418450832367,0.1625785380601883,-0.34612300992012024
1761139826329333200,10.756333251953125,-0.18721385300159454,0.1253841370344162,-0.34784385561943054
1761139826339392500,10.766392578125,-0.10171359777450562,0.10445783287286758,-0.31653574109077454
1761139826349451300,10.776451171875,-0.025380026549100876,0.0937536284327507,-0.24698181450366974
1761139826359509500,10.786509521484374,0.05293794721364975,0.1005188524723053,-0.1573166400194168
1761139826369568300,10.796568359375,0.1128196194767952,0.10377662628889084,-0.07515636086463928
1761139826379627500,10.80662744140625,0.15189965069293976,0.111543208360672,-0.009941665455698967
1761139826389685500,10.816685546875,0.1542673259973526,0.10523809492588043,0.017218273133039474
1761139826399744300,10.826744140625,0.12873560190200806,0.07942061126232147,0.00390752824023366
1761139826409803300,10.83680322265625,0.09165208041667938,0.042114634066820145,-0.038100313395261765
1761139826419862300,10.8468623046875,0.04815121367573738,0.020494559779763222,-0.08491601794958115
1761139826429920500,10.85692041015625,0.000636391225270927,0.018349576741456985,-0.12783031165599823
1761139826439979300,10.866979248046874,-0.03357750549912453,0.022394651547074318,-0.16897161304950714
1761139826450038500,10.87703857421875,-0.046484481543302536,0.03185667097568512,-0.19445395469665527
1761139826460096300,10.88709619140625,-0.048220328986644745,0.054756395518779755,-0.19585557281970978
1761139826470155300,10.8971552734375,-0.03920917212963104,0.08869171887636185,-0.1922624111175537
1761139826480214300,10.90721435546875,-0.02169675938785076,0.10538068413734436,-0.19517219066619873
1761139826490273300,10.917273193359375,-0.015105635859072208,0.11843527108430862,-0.2177664339542389
1761139826500331500,10.92733154296875,-0.025988908484578133,0.13028660416603088,-0.2556309998035431
1761139826510390300,10.937390380859375,-0.052963804453611374,0.14207269251346588,-0.31234434247016907
1761139826520449300,10.94744921875,-0.0955599918961525,0.12510782480239868,-0.39300641417503357
1761139826530507300,10.95750732421875,-0.1434183120727539,0.07903509587049484,-0.4708160161972046
1761139826540566500,10.96756640625,-0.1781773567199707,0.035716913640499115,-0.5293120741844177
1761139826550625300,10.977625244140626,-0.18495629727840424,0.019366368651390076,-0.5501370429992676
1761139826560683300,10.987683349609375,-0.16499963402748108,0.06879544258117676,-0.509311318397522
1761139826570742300,10.9977421875,-0.11147164553403854,0.15608033537864685,-0.41348162293434143
1761139826580801300,11.00780126953125,-0.022255489602684975,0.25472491979599,-0.2658277153968811
1761139826590859500,11.017859619140625,0.07272431999444962,0.3460673987865448,-0.11105161905288696
1761139826600918300,11.027918212890626,0.1478683352470398,0.39628660678863525,-0.0049946922808885574
1761139826610977500,11.0379775390625,0.19381044805049896,0.42329293489456177,0.004500779788941145
1761139826621036300,11.048036376953124,0.2187618762254715,0.43281346559524536,-0.049772847443819046
1761139826631094500,11.058094482421875,0.22572562098503113,0.4339010715484619,-0.12852336466312408
1761139826641153300,11.0681533203125,0.202536940574646,0.46614503860473633,-0.17815376818180084
1761139826651212500,11.078212646484374,0.1755422204732895,0.5307215452194214,-0.15020588040351868
1761139826661270300,11.088270263671875,0.16531062126159668,0.5710596442222595,-0.049001775681972504
1761139826671329300,11.098329345703124,0.1752367615699768,0.5683782696723938,0.0891546756029129
1761139826681388300,11.10838818359375,0.20063187181949615,0.5569629073143005,0.2612212598323822
1761139826691446300,11.1184462890625,0.22082625329494476,0.530076265335083,0.4282596707344055
1761139826701505500,11.128505615234374,0.24198026955127716,0.5084846615791321,0.5421169400215149
1761139826711564300,11.138564208984375,0.2766910493373871,0.38851577043533325,0.5798101425170898
1761139826721623300,11.148623291015625,0.2879953682422638,0.1034022644162178,0.500092089176178
1761139826731681300,11.158681396484376,0.2471873164176941,-0.2724246382713318,0.2815920114517212
1761139826741740500,11.168740478515625,0.13736175000667572,-0.5846890211105347,-0.04845033958554268
1761139826751799300,11.17879931640625,-0.011446252465248108,-0.7550813555717468,-0.39362695813179016
1761139826761857300,11.188857177734375,-0.16171644628047943,-0.8006362915039062,-0.6425917744636536
1761139826771916300,11.198916259765625,-0.3243541717529297,-0.6436456441879272,-0.7303344011306763
1761139826781975300,11.208975341796876,-0.4398235082626343,-0.3015857934951782,-0.6206918358802795
1761139826792033500,11.219033447265625,-0.46870487928390503,0.15512841939926147,-0.34399452805519104
1761139826802092300,11.22909228515625,-0.39346739649772644,0.6234437227249146,0.027804872021079063
1761139826812151600,11.239151611328126,-0.22471104562282562,0.9236612915992737,0.3937327265739441
1761139826822210300,11.249210205078125,-0.05543786287307739,1.005614995956421,0.6810324192047119
1761139826832268300,11.259268310546876,0.055638156831264496,0.8981888294219971,0.8693281412124634
1761139826842327300,11.269327392578125,0.10723024606704712,0.6943137049674988,0.9522374272346497
1761139826852386300,11.27938623046875,0.12463968247175217,0.4450671672821045,0.9328534007072449
1761139826862444300,11.2894443359375,0.11799003928899765,0.25142204761505127,0.8365300297737122
1761139826872503300,11.29950341796875,0.05968443676829338,0.15039639174938202,0.703744649887085
1761139826882562300,11.309562255859374,-0.04548752307891846,0.14461226761341095,0.5459113121032715
1761139826892620300,11.319620361328125,-0.1595984548330307,0.23474575579166412,0.362008661031723
1761139826902679600,11.329679443359375,-0.2601895034313202,0.33351439237594604,0.1622369885444641
1761139826912738300,11.33973828125,-0.32626643776893616,0.41774189472198486,-0.033762138336896896
1761139826922797600,11.349797607421875,-0.3599865734577179,0.5036506652832031,-0.17328114807605743
1761139826932855300,11.359855224609374,-0.3835667371749878,0.5593627095222473,-0.2398548573255539
1761139826942914300,11.369914306640625,-0.41213899850845337,0.48471805453300476,-0.2698489725589752
1761139826952973300,11.379973388671875,-0.43863973021507263,0.2607342600822449,-0.26518723368644714
1761139826963031300,11.39003125,-0.4856695532798767,-0.05680080130696297,-0.2540017068386078
1761139826973090300,11.40009033203125,-0.5843595266342163,-0.3711664080619812,-0.25778844952583313
1761139826983149300,11.4101494140625,-0.7395539283752441,-0.6546695232391357,-0.3024509847164154
1761139826993207600,11.42020751953125,-0.9034895300865173,-0.9329754710197449,-0.3956938683986664
1761139827003266300,11.430266357421875,-1.0238471031188965,-1.1372992992401123,-0.49865221977233887
1761139827013325600,11.44032568359375,-1.0696818828582764,-1.2024524211883545,-0.5705539584159851
1761139827023384300,11.45038427734375,-1.006369709968567,-1.0903620719909668,-0.5852586030960083
1761139827033442300,11.4604423828125,-0.8675047755241394,-0.7663176655769348,-0.5793551802635193
1761139827043501300,11.470501220703126,-0.6922748684883118,-0.35253193974494934,-0.5525182485580444
1761139827053560300,11.480560302734375,-0.46589890122413635,-0.0197928324341774,-0.4985966384410858
1761139827063618300,11.490618408203124,-0.21804434061050415,0.17634737491607666,-0.4377090632915497
1761139827073677300,11.50067724609375,-0.041193827986717224,0.31508272886276245,-0.3575595021247864
1761139827083736300,11.510736328125,-0.0037660279776901007,0.4263346791267395,-0.280213326215744
1761139827093794300,11.520794189453126,-0.054851699620485306,0.46233150362968445,-0.22400878369808197
1761139827103853600,11.530853515625,-0.13581739366054535,0.45675191283226013,-0.1661849021911621
1761139827113912300,11.540912353515624,-0.18989382684230804,0.3973143994808197,-0.10038454085588455
1761139827123971600,11.5509716796875,-0.1977834403514862,0.3164389729499817,-0.03736216947436333
1761139827134029300,11.561029296875,-0.1700873225927353,0.2503288686275482,0.022197669371962547
1761139827144088300,11.57108837890625,-0.10696560144424438,0.21198253333568573,0.07928332686424255
1761139827154147300,11.581147216796875,-0.03407471626996994,0.22318299114704132,0.13803032040596008
1761139827164205300,11.591205322265624,0.02647464908659458,0.26898136734962463,0.2023981213569641
1761139827174264300,11.601264404296876,0.06497257202863693,0.3037545680999756,0.24254637956619263
1761139827184323300,11.6113232421875,0.06928982585668564,0.2839275896549225,0.2364504039287567
1761139827194381300,11.62138134765625,0.03148142620921135,0.1844756156206131,0.2187201976776123
1761139827204440300,11.6314404296875,-0.02525322698056698,0.05992063507437706,0.20115771889686584
1761139827214499600,11.64149951171875,-0.08443953096866608,-0.08829953521490097,0.19183339178562164
1761139827224558300,11.651558349609376,-0.14537584781646729,-0.24428753554821014,0.18022014200687408
1761139827234616300,11.6616162109375,-0.2025596648454666,-0.3672972321510315,0.16752435266971588
1761139827244675300,11.67167529296875,-0.2633252739906311,-0.4346397817134857,0.14375005662441254
1761139827254734300,11.681734375,-0.29894086718559265,-0.4661116302013397,0.11386226862668991
1761139827264792000,11.6917919921875,-0.2947511672973633,-0.45550984144210815,0.07494629919528961
1761139827274850800,11.701850830078126,-0.283066064119339,-0.3884633481502533,0.04898569732904434
1761139827284910000,11.71191015625,-0.2627410888671875,-0.2723039984703064,0.03911655396223068
1761139827294967800,11.7219677734375,-0.2874525189399719,-0.17503434419631958,0.04478990286588669
1761139827305026800,11.73202685546875,-0.3462098240852356,-0.12363027781248093,0.07522104680538177
1761139827315085800,11.7420859375,-0.4194868206977844,-0.08411627262830734,0.10678763687610626
1761139827325144800,11.752144775390626,-0.5217029452323914,0.010826753452420235,0.2958073616027832
1761139827335202800,11.762202880859375,-0.6020116209983826,-0.2720707058906555,0.3300129771232605
1761139827345261800,11.77226171875,-0.6861554980278015,-0.41839492321014404,0.2598054111003876
1761139827355320800,11.78232080078125,-0.7416369915008545,-0.3570765256881714,0.16040131449699402
1761139827365378800,11.79237890625,-0.7741981148719788,-0.29174917936325073,0.04185549169778824
1761139827375437800,11.802437744140626,-0.8054884076118469,-0.3087840676307678,-0.06724517047405243
1761139827385496800,11.812496826171875,-0.8544639348983765,-0.4025600850582123,-0.1143045574426651
1761139827395556000,11.82255615234375,-0.9019969701766968,-0.5673672556877136,-0.06887436658143997
