time,seconds_elapsed,z,y,x
1761141538078406100,0.06840625,0.8697124577522277,-0.18212971430271863,-0.26938363486379385
1761141538088465000,0.07846484375,1.0237667089104652,-0.24619243662953375,-0.3437978745307773
1761141538098525000,0.08852490234375,1.0558429321289062,-0.3853934020489454,-0.3236388835992664
1761141538108584000,0.098583984375,1.0090800119102001,-0.5337596706986427,-0.3541417200211435
1761141538118644000,0.10864404296875,0.9430418978571892,-0.5649497587323189,-0.43291510474570094
1761141538128703200,0.118703125,0.8577712600678205,-0.5482327249482274,-0.5184417631227523
1761141538138763000,0.128762939453125,0.7401999426543712,-0.49218248255476355,-0.5036765940587967
1761141538148823000,0.138822998046875,0.5567015703469514,-0.40980785846784706,-0.4110258559554815
1761141538158882000,0.148882080078125,0.2780582319676876,-0.29882161853313444,-0.25896358233205974
1761141538168942000,0.158942138671875,0.011798574343323707,-0.1607819519780576,-0.1073020715292543
1761141538179001000,0.1690009765625,-0.12519874355196953,-0.038487843826413154,-0.03570442365296185
1761141538189060900,0.179060791015625,-0.20426760409176348,0.034032617983222005,-0.0410467345289886
1761141538199121000,0.189120849609375,-0.2895651298880577,0.024136954651772975,-0.06839307968132198
1761141538209180200,0.19918017578125,-0.25771277855336666,0.007564005513489246,-0.0850794260662049
1761141538219240000,0.209239990234375,-0.1466799229979515,-0.0643798254519701,-0.11187493240274489
1761141538229299000,0.219298828125,-0.03084580464065075,-0.198176447609812,-0.1505224237702787
1761141538239359200,0.229359130859375,0.023237083202600477,-0.30390856640860436,-0.11263802572973072
1761141538249419000,0.2394189453125,0.0386947645753622,-0.3072903178013861,-0.09084010848477482
1761141538259478000,0.24947802734375,0.04819733693599701,-0.312398746856302,-0.12862148454226552
1761141538269538000,0.2595380859375,-0.025751111850142477,-0.3399544239103794,-0.14516075060665606
1761141538279597000,0.26959716796875,-0.1646656615436077,-0.32585575593113897,-0.09820873755663632
1761141538289657000,0.279656982421875,-0.34334289730489254,-0.21138474262058735,-0.017541136583313344
1761141538299716000,0.289716064453125,-0.47441900845766066,-0.05000160987898707,0.11185505865849554
1761141538309776100,0.299776123046875,-0.5332932222306728,0.09415376307740807,0.22488683294616638
1761141538319836200,0.309836181640625,-0.4561971230685711,0.16246259854137896,0.30745756412707265
1761141538329895000,0.31989501953125,-0.28565877009928226,0.13882161071300506,0.35291765811890363
1761141538339955200,0.329955078125,-0.05235387209355831,0.0472379903845489,0.28378201644197104
1761141538350015000,0.340014892578125,0.13133680791556834,-0.08983531535640359,0.1917233259476721
1761141538360074000,0.350073974609375,0.21803426363766193,-0.1638271648928523,0.09111278794631361
1761141538370134000,0.360134033203125,0.21223463744819163,-0.2074621623493731,-0.005010886964574456
1761141538380193000,0.370193115234375,0.13213409577310084,-0.17474705670550464,-0.045108796336129305
1761141538390253000,0.380253173828125,0.04947276369929313,-0.08064473155438899,-0.009238733792677522
1761141538400312000,0.39031201171875,-0.03477437626123428,0.00228504219725728,0.10223397448472678
1761141538410372000,0.4003720703125,-0.09763210671246052,0.07899477239027619,0.20339995441175995
1761141538420432100,0.41043212890625,-0.19132862754166124,0.16041238801330326,0.25975707079730925
1761141538430491000,0.420490966796875,-0.2555447868645191,0.18318433792218564,0.29494923407919704
1761141538440551200,0.43055126953125,-0.2584066060364246,0.1823496406637132,0.25929106072075664
1761141538450610000,0.44060986328125,-0.22847733171880244,0.15163929897099732,0.19980346428975462
1761141538460670000,0.450669921875,-0.14862930350005626,0.14676190219298005,0.16768150223344563
1761141538470730000,0.46072998046875,-0.06788461870253086,0.08913900365531444,0.12904175578095017
1761141538480789000,0.4707890625,-0.04003215065896511,0.06563494007959962,0.09534896421134471
1761141538490849000,0.48084912109375,-0.005215688821673393,0.053552141967415805,0.09925941565334796
1761141538500907500,0.490907470703125,0.03417933297753334,0.05899930145740509,0.07239530106000602
1761141538510967300,0.50096728515625,0.09982757093012333,0.03500073236301541,0.06252827930115162
1761141538521027300,0.51102734375,0.14937106177806853,0.03720598732233047,0.08550451961047947
1761141538531086300,0.52108642578125,0.15291267990767954,0.07911372259482741,0.10578143783323467
1761141538541146400,0.531146484375,0.1402004978507757,0.11029124340787529,0.10637217026799917
1761141538551205400,0.541205322265625,0.033442835396528245,0.17522431882843373,0.13739640021547675
1761141538561265400,0.551265380859375,-0.047158641538023946,0.2223689318411052,0.12398461852185427
1761141538571325200,0.5613251953125,-0.004749824875593185,0.2567036015108228,0.07095204344913363
1761141538581384400,0.571384521484375,0.1399012226432562,0.22795330784469842,-0.002417363340035081
1761141538591444200,0.5814443359375,0.26488953831493856,0.10974340026676654,-0.0354772638335824
1761141538601503500,0.59150341796875,0.3396218309551477,0.04729395835548639,-0.07643339746966958
1761141538611563500,0.6015634765625,0.36961890981197354,0.06301628201380371,-0.09995017439648508
1761141538621623300,0.611623291015625,0.39851007325351234,0.04769245615378022,-0.12424107750095427
1761141538631682300,0.621682373046875,0.4383633602142334,0.05791092169880867,-0.08911562277972698
1761141538641742600,0.63174267578125,0.4767991815924644,0.07762611438557505,-0.03188464616909623
1761141538651801300,0.64180126953125,0.5043365923374891,0.07626520129591226,0.032098215854540466
1761141538661861400,0.651861328125,0.4330038790076971,0.1113093344092369,0.07540756155326962
1761141538671920400,0.66192041015625,0.3616612288057804,0.1449064835846424,0.09409750284552573
1761141538681980400,0.67198046875,0.39571781218647956,0.16803206923678515,0.052756461545079944
1761141538692040400,0.68204052734375,0.5344266101747751,0.15490940668284892,0.02249050261899829
1761141538702099200,0.69209912109375,0.6896271087586879,0.10247004826292395,-0.007546981313452124
1761141538712159500,0.702159423828125,0.766204152482748,0.06381926895976066,-0.07113222232162952
1761141538722218200,0.71221826171875,0.7638941219747066,0.05357406153827905,-0.1706315111454576
1761141538732278300,0.7222783203125,0.7128086623817682,0.06656432988420129,-0.23246932396441697
1761141538742338300,0.73233837890625,0.5927946279913187,0.041525750217586754,-0.24120551506243645
1761141538752397300,0.742397216796875,0.6183925951063632,-0.009677928927540779,-0.22284780139923094
1761141538762457300,0.752457275390625,0.8173989176690578,-0.021610212653130293,-0.20428031744286418
1761141538772516600,0.7625166015625,0.9539122514396905,-0.09804536368846893,-0.07329005794264376
1761141538782576400,0.772576416015625,0.8803624465823173,-0.17774170847684143,-0.018375833841785788
1761141538792635400,0.782635498046875,0.7757984947800636,-0.22781974459290502,-0.19828867581263182
1761141538802695200,0.792695068359375,0.5612251852512359,-0.20512992000952363,-0.25090543662607667
1761141538812755500,0.80275537109375,0.14652911635041235,-0.1263657415047288,-0.23454094260670244
1761141538822814500,0.812814453125,-0.22616204051375388,0.07320742116048931,-0.31344810977876186
1761141538832874200,0.822874267578125,-0.37982407748401165,0.722240215332806,0.00788929194509983
1761141538842933500,0.83293359375,-0.7893845370620489,1.548624695751071,0.5576552178099751
1761141538852993500,0.84299365234375,-1.5866262173652648,0.8707127208359539,0.7635907551139592
1761141538863053300,0.85305322265625,-1.8621166446715591,0.40368046162873505,0.6579978986553847
1761141538873112300,0.8631123046875,-1.4572855517029761,0.6232176771752536,0.4947444419972598
1761141538883172400,0.87317236328125,-0.9792086052596568,1.3641903577677905,0.7611315253935754
1761141538893231400,0.8832314453125,-0.9503039978146552,1.0546326795563101,1.0274889443039894
1761141538903291400,0.89329150390625,-1.1452473087221384,0.22206541884988545,0.9677085754714906
1761141538913351400,0.903351318359375,-1.1869167051941156,0.021382249116152524,0.694417119514197
1761141538923410400,0.913410400390625,-1.1544576201379297,0.56508741363734,0.33447175471559165
1761141538933470500,0.923470458984375,-1.0385820007264615,1.1000238730303942,-0.03783697870224714
1761141538943529500,0.933529541015625,-0.9341519044369458,1.0950579211860894,-0.010806202305108308
1761141538953589500,0.943589599609375,-0.9038286623656749,0.7754892827004194,0.0985622271694243
1761141538963649300,0.953649169921875,-0.8329775950729846,0.5964027354858815,0.1271232818737626
1761141538973708300,0.963708251953125,-0.7476362301349639,0.5345740558214486,-0.0902709302946925
1761141538983768600,0.9737685546875,-0.415286436009407,0.5712007819510996,-0.472668949919939
1761141538993827300,0.983827392578125,0.06783668790757656,0.5459748630188406,-0.8840928652822971
1761141539003887400,0.993887451171875,0.6518915446043014,0.4400755709595978,-1.2316896206393837
1761141539013946400,1.0039462890625,1.3347732707560063,0.20827216355800626,-1.43417121809721
1761141539024006400,1.01400634765625,2.0734978801608084,-0.07952449535280466,-1.5668804834097623
1761141539034066400,1.02406640625,2.7500089022368193,-0.3205529733479023,-1.8211366917684673
1761141539044125400,1.03412548828125,3.1812370037436484,-0.4425935451298952,-2.2384520032569766
1761141539054185500,1.044185546875,3.6307810986638067,-0.536764551603049,-2.667053263391554
1761141539064244200,1.054244140625,3.8865655395030974,-0.5501942342795432,-2.8417238938599825
1761141539074304300,1.06430419921875,3.833570446896553,-0.27021993955746293,-3.067415978774428
1761141539084364300,1.0743642578125,3.6518951983630656,0.052788610249012706,-3.0501039017066356
1761141539094423300,1.08442333984375,3.2018414003551006,0.04046966529339552,-2.6414634795829652
1761141539104483300,1.0944833984375,2.968971971157193,0.12050927056148647,-2.7911764866665005
1761141539114542600,1.10454248046875,2.770297072505951,0.5527664228551089,-2.9239439119070765
1761141539124602400,1.114602294921875,2.1275369288623334,0.0008744447469711303,-1.215465338808298
1761141539134662400,1.124662353515625,1.4843360557138918,-0.7269796649448573,-0.14925708000957966
1761141539144721200,1.13472119140625,0.9054080405116081,-0.7344070384666324,-0.033360417810082435
1761141539154781400,1.144781494140625,0.4916273328900337,-0.5214698057070374,-0.5286176316350698
1761141539164840400,1.15484033203125,0.2740238618850708,-0.34949528245478867,-1.091067390245199
1761141539174900200,1.164900146484375,0.1069827033817768,0.17104294149056076,-1.1972142273247242
1761141539184959500,1.17495947265625,0.8246843985021114,0.6718639269225299,-1.585920699444413
1761141539195019500,1.18501953125,1.7169442036271094,1.211580606329441,-1.925098293763399
1761141539205079300,1.195079345703125,2.016829067477584,1.0159190641500055,-1.9519138199746608
1761141539215138600,1.205138671875,2.1572662966936824,0.4290283995054662,-2.2799960197836158
1761141539225198300,1.2151982421875,1.9043758237302302,-0.24108736857548355,-2.600440856581926
1761141539235257300,1.22525732421875,1.4232967728614807,-0.8539388422980904,-2.4872727425634857
1761141539245317400,1.2353173828125,0.7239648471683263,-1.6058587411016225,-2.3566262549996373
1761141539255376400,1.24537646484375,-0.007608136916160583,-2.206501159983873,-2.149031552311778
1761141539265436400,1.2554365234375,-1.0881330903589725,-2.5983491449996827,-1.8656389735788106
1761141539275496400,1.265496337890625,-2.140109410187602,-2.9468907799914477,-1.8348194724231957
1761141539285555500,1.275555419921875,-3.035792175498605,-3.1524019544035196,-1.9242846392929553
1761141539295615500,1.285615478515625,-4.372161191013455,-3.1119615152046083,-1.5028081164717673
1761141539305674200,1.29567431640625,-5.378016980180144,-2.354729335337132,-0.49165012924373147
1761141539315734300,1.305734375,-6.578815495732426,-1.2189527425326405,1.2510533695399761
1761141539325794600,1.315794677734375,-7.742340803945064,-0.4651680727705359,3.0275802274703976
1761141539335853300,1.325853271484375,-7.266805358678102,0.21739567347317934,4.725628007447719
1761141539345913300,1.335913330078125,-6.4866574365168805,0.47428573746681213,6.264977509853243
1761141539355972400,1.345972412109375,-6.395286143764853,-0.5245657258957624,7.936628865814209
1761141539366032400,1.356032470703125,-7.048820779401064,-3.0296283921718596,8.929410069352388
1761141539376092400,1.366092529296875,-9.139901662525535,-4.949971600362658,9.069613489812612
1761141539386151400,1.3761513671875,-11.153849037086964,-4.080654279407859,8.627214590471983
1761141539396211500,1.38621142578125,-15.176258632797001,-5.634103618836402,8.011073573684692
1761141539406270200,1.396270263671875,-18.112799575948713,-6.162572197389602,7.310486679494381
1761141539416330200,1.406330322265625,-19.431058934277296,-5.714394714647531,7.219784079784154
1761141539426389500,1.416389404296875,-18.797757523852585,-4.977878428941965,7.258404610079526
1761141539436449300,1.42644921875,-15.994632532978057,-4.089149136030674,6.430188530319929
1761141539446509300,1.43650927734375,-11.459857936775684,-4.100471909555792,5.392789017376304
1761141539456568600,1.446568603515625,-6.491043688777089,-3.801211022822559,4.2750516468703745
1761141539466628400,1.45662841796875,-2.271676519727707,-3.141619571365416,3.476033604544401
1761141539476687400,1.466687255859375,1.2132751352876423,-2.437894963671267,2.1238214154705406
1761141539486747400,1.476747314453125,2.590502815413475,-2.3257591153100132,0.28875527480989693
1761141539496807400,1.486807373046875,2.970260841923952,-1.9112810730740426,-1.5552132803611456
1761141539506866200,1.4968662109375,4.0038948648542165,-0.7994124484710395,-2.748857978636026
1761141539516926200,1.50692626953125,5.1675546131014825,0.1563749491907656,-2.682638078275323
1761141539526985200,1.516985107421875,5.639283067300916,1.0128450635321438,-2.0308682603545485
1761141539537045200,1.527045166015625,5.907741696274281,1.8764836081981657,-1.1082438582345842
1761141539547104300,1.537104248046875,5.704578254032135,2.546818571987748,-0.15597031391263008
1761141539557164300,1.547164306640625,5.6760611845999955,2.521536246693134,0.45634354580193753
1761141539567224300,1.557224365234375,6.410150535419583,1.6440804813377559,1.1408081572309137
1761141539577283000,1.567282958984375,5.959176115435361,0.1279771952893585,2.2214897625401613
1761141539587343000,1.577343017578125,3.7573926316231487,-1.5974977399915455,3.43211438331902
1761141539597402400,1.58740234375,2.1054870096176863,-2.3531870743311942,3.7068361643403764
1761141539607462100,1.597462158203125,0.944981926009059,-3.195940067356825,3.6880022845327853
1761141539617522200,1.607522216796875,1.4226497071295976,-3.374315982083976,3.2771748737588524
1761141539627581400,1.61758154296875,3.0983085451662538,-2.6869185320734976,2.1353917340159416
1761141539637641200,1.62764111328125,4.094894986206293,-2.320360909528285,1.5743606100320815
1761141539647700200,1.6377001953125,4.665072708719968,-2.004174460826814,1.3459557590276001
1761141539657760300,1.64776025390625,5.265724479952454,-1.1593898158431053,1.5160139272645115
1761141539667819300,1.6578193359375,5.945761922588944,-0.630698534449935,2.2991630770683287
1761141539677879300,1.66787939453125,6.3579205819666385,-0.6799129394739866,3.37774975592494
1761141539687939000,1.67793896484375,6.230035960331559,-0.7430079858124256,3.895609846702218
1761141539697998300,1.687998291015625,5.723058498096465,-1.0286891138739884,3.856119547834992
1761141539708058400,1.698058349609375,5.910443940970302,-1.3556665673114359,3.119043290159106
1761141539718117000,1.7081171875,4.736189733472466,-1.1285236260015516,2.3896400513291356
1761141539728177400,1.718177490234375,3.961704074856639,-0.18364998267255722,2.013553699068725
1761141539738237200,1.7282373046875,3.4458307739824057,1.0569373032368719,1.7197388027817009
1761141539748296200,1.738296142578125,3.1114164485424753,2.090356806633621,1.4980577070742844
1761141539758356200,1.748356201171875,3.110641957038641,2.882489327229559,1.1669015066474675
1761141539768415200,1.758415283203125,2.8932389770418405,3.761546828693151,0.2184822996661067
1761141539778475300,1.768475341796875,1.9455209040671586,3.976078929428756,0.16349311063289643
1761141539788534300,1.7785341796875,2.378784895315766,4.320814450135827,0.5869213520437478
1761141539798594300,1.78859423828125,4.244584027892351,4.590288978153467,1.2823901725679636
1761141539808654300,1.798654296875,8.731909475177526,2.603618902096152,2.480564184835553
1761141539818713000,1.808713134765625,10.409315449142456,-0.4985065710097551,3.550143089111149
1761141539828773400,1.8187734375,7.992142078721523,0.4353048494264483,2.6039351284384726
1761141539838832000,1.82883203125,6.670818072125315,0.46767479489445685,1.1489353495851158
1761141539848892200,1.83889208984375,5.079654795852303,-1.5665581195876002,1.1544430070906877
1761141539858952200,1.8489521484375,2.221559612905979,-4.151149665130674,0.7771028553768992
1761141539869011200,1.85901123046875,1.3892004419922828,-5.310463200867176,1.9939659321539103
1761141539879071200,1.8690712890625,2.6167612922638654,-2.1580624155074357,7.490174553602934
1761141539889130200,1.879130126953125,1.7997499126076697,5.843237367659807,5.5364200741976495
1761141539899190300,1.889190185546875,1.7201070515722034,8.943327535545825,4.428925865286589
1761141539909249300,1.899249267578125,3.3148850112110373,9.063917908519507,7.546665087109804
1761141539919309000,1.90930908203125,3.91869436969161,10.524987654936313,5.236802336850762
1761141539929369000,1.919369140625,2.1785516613066194,8.12754657446742,1.3594066306225954
1761141539939428400,1.929428466796875,1.656285444524884,6.890527575498819,-2.188003964784741
1761141539949488000,1.939488037109375,2.2010136684834958,7.884327016168832,-3.6726603384941816
1761141539959547400,1.94954736328125,3.1268630239993334,9.36555458447337,-3.0437539481580256
1761141539969607400,1.959607421875,4.151312454476952,9.151026283130049,-0.6504523055814206
1761141539979666200,1.969666259765625,5.45620496623218,5.980467325267195,0.3759818689726293
1761141539989726200,1.979726318359375,6.06755348804593,0.9785492645680903,2.7463305059850214
1761141539999786200,1.9897861328125,5.43119619718194,-5.122277547526359,5.7559904613614075
1761141540009845200,1.99984521484375,4.16287955815196,-8.001480984953046,5.524025287526846
1761141540019905300,2.0099052734375,2.1167998462706805,-7.308421563658118,4.809947335861623
1761141540029964300,2.01996435546875,-1.03919984036386,-5.811089832770824,4.3039609304904936
1761141540040024300,2.0300244140625,-4.246718701833486,-4.2259331034362315,3.376171254561841
1761141540050083000,2.0400830078125,-8.520250591790676,-3.199834152185917,1.232937428743392
1761141540060143400,2.050143310546875,-12.69981591180563,-2.3124796547591684,-1.3834724197342991
1761141540070203400,2.060203369140625,-14.308235443305968,-1.2198580208092926,-3.7310984989374876
1761141540080262100,2.07026220703125,-13.944955088865756,-0.6232751064509153,-5.456837418916821
1761141540090322200,2.080322265625,-12.747784116160869,0.03202770790159702,-6.101157651484012
1761141540100381200,2.090381103515625,-10.456395180225371,0.6926368119686842,-5.179336236310005
1761141540110441200,2.100441162109375,-7.267626027411222,0.28502105671763417,-3.563147824373841
1761141540120501200,2.110501220703125,-4.70701332334876,-0.28831308400034905,-2.084951440458745
1761141540130560300,2.120560302734375,-3.008511954385042,-0.08300766129344701,-1.1360168313011527
1761141540140620300,2.130620361328125,-2.2684008590579032,0.9106149615049361,-0.8389139263194054
1761141540150679300,2.14067919921875,-2.3985902505040166,1.6880530401855707,-0.30429676200859246
1761141540160739000,2.150739013671875,-2.8392490281790494,1.673831622609496,0.26866489213518796
1761141540170798300,2.16079833984375,-2.7193641731262206,1.6636144722387194,0.12894633258245886
1761141540180858000,2.170858154296875,-2.3777719188809394,2.1786539526373145,-1.0566996950887142
1761141540190918100,2.180918212890625,-1.8356430637657641,1.8742682702362536,-1.8818015883505343
1761141540200977400,2.190977294921875,-0.3775637313365936,0.4436500684455037,-1.7146552159070967
1761141540211037200,2.201037109375,1.4261352111577987,-0.42763650675565,-1.2916207961194217
1761141540221096200,2.21109619140625,3.278818257051706,-0.6089081429243087,-1.2013175709903239
1761141540231156200,2.22115625,4.76333726811707,-1.179688799767196,-2.0271148991703987
1761141540241216300,2.23121630859375,5.281867805501818,-1.7225041758418083,-2.2601602694571015
1761141540251275300,2.241275146484375,4.765752512565255,-2.417025924774259,-0.8897647734388708
1761141540261335000,2.2513349609375,3.446320018804073,-2.1807370425216854,0.31053068796209987
1761141540271394300,2.261394287109375,1.8436060054689645,-1.4060235664993523,0.6950901234049349
1761141540281454300,2.271454345703125,0.30805647986829277,-0.8331555819883942,0.20222316571734844
1761141540291513000,2.28151318359375,0.073102645611763,-0.9200169961005449,0.02396985445655882
1761141540301573400,2.291573486328125,0.6632552346616983,-1.4964701456218956,0.16545944226980208
1761141540311633400,2.30163330078125,1.5913374637961386,-2.033839531250298,0.42504985126331446
1761141540321692200,2.311692138671875,2.6681828519433735,-2.3739039914064106,0.17509250914230942
1761141540331752200,2.321752197265625,3.9927755049467084,-2.0374368250899018,-0.24262473421059547
1761141540341811200,2.331811279296875,4.578715444737672,-1.2255530175805092,0.8658202726192772
1761141540351871200,2.341871337890625,4.391215435573458,-1.195675765711069,2.0727029303908346
1761141540361930200,2.35193017578125,3.9822494347572324,-1.2755820999883114,3.037910482826829
1761141540371990300,2.361990234375,3.146593560385704,-1.8821208834327756,3.7877620509237047
1761141540382050300,2.37205029296875,1.3721587062984704,-3.0520234715923666,3.9360207675457
1761141540392109000,2.382109130859375,-1.1340268265277147,-4.193909487187862,3.506940783983469
1761141540402169300,2.39216943359375,-2.23004394813478,-4.621291434660554,2.941248682451248
1761141540412228400,2.402228271484375,-4.566407751828431,-6.3049874486804,2.9641522959157824
1761141540422288100,2.4122880859375,-5.383652940240502,-8.58669261046946,2.0776966470248994
1761141540432347400,2.422347412109375,-6.552462326335907,-9.39914588842988,0.37608635226041076
1761141540442407200,2.4324072265625,-8.371886076706648,-9.43120399146974,-0.6717689421154558
1761141540452467200,2.44246728515625,-8.28401782363951,-4.6952959975481035,0.22068360910266638
1761141540462526200,2.452526123046875,-8.31365600605607,0.9217029033608735,-3.4297917855903504
1761141540472586200,2.462586181640625,-8.860983014336227,3.397266357299685,-5.012286894500256
1761141540482645200,2.472645263671875,-8.769509430253505,3.4791491062164304,-3.7879064278304573
1761141540492705300,2.482705322265625,-7.642564670941233,2.7195377761274573,-2.66760212944597
1761141540502766300,2.492766357421875,-6.092029173132777,2.2733621347270905,-3.0346178710222245
1761141540512825300,2.502825439453125,-4.193014584174752,2.2360135240636763,-3.9531437517821786
1761141540522885400,2.512885498046875,-2.2419471518963574,2.3211723720416426,-4.103447710496187
1761141540532944100,2.522944091796875,-0.4579313995152712,2.541281688387692,-4.103429590317607
1761141540543004200,2.533004150390625,1.1622171482235193,2.598095462499559,-4.342243607133627
1761141540553063400,2.5430634765625,2.4193290871500968,2.902775451672077,-2.7165236890032887
1761141540563123200,2.553123291015625,3.4588813942134378,2.997836246591806,-1.3311571260854602
1761141540573183200,2.563183349609375,4.342700703251362,2.9783240291312336,-1.4552838564917445
1761141540583242200,2.5732421875,4.674503969410061,2.966409134931862,-1.211389979128167
1761141540593302300,2.58330224609375,4.7314837477386,2.6250261395230887,-0.765377565465495
1761141540603361300,2.593361328125,4.75145686070919,2.021328424723446,-0.29948914253115655
1761141540613421300,2.60342138671875,5.01962673586905,1.4333385666653513,-0.24955745608322322
1761141540623480300,2.613480224609375,5.015316471454501,1.0179188596650957,-0.17546397280320525
1761141540633540400,2.623540283203125,5.027725871172547,0.6836196850374341,0.060276408721134066
1761141540643600100,2.63360009765625,5.0979199358612295,0.39684477038979526,0.28050584431551395
1761141540653659400,2.643659423828125,5.070678293192386,0.16639730764180422,0.5654321354217827
1761141540663719200,2.65371923828125,4.3023973344355815,0.10539748001694679,1.0193089257840067
1761141540673778200,2.663778076171875,2.930918427094817,0.0576937718167901,1.6596574051760136
1761141540683838500,2.67383837890625,1.5005997927725314,0.41824645485877987,2.204927919317782
1761141540693897200,2.683897216796875,0.7500760245025158,0.5624307616487145,1.9574904510632156
1761141540703957200,2.693957275390625,0.2983610152840614,0.5699478592805564,1.4612678993374109
1761141540714017300,2.704017333984375,-0.5507014531493186,0.5094873992294073,1.5718394209913908
1761141540724076300,2.714076171875,-0.8333359069913625,0.41793914247527714,1.6718959783717988
1761141540734136300,2.72413623046875,-0.6958218717455864,0.13863485596925018,1.365087160477042
1761141540744195300,2.7341953125,-0.46757016547620295,-0.29532822345942256,0.8802459805957973
1761141540754255400,2.74425537109375,-0.2944838815897703,-0.7658437947377562,0.5679500365268438
1761141540764314000,2.754314208984375,-0.1473994694441557,-1.1165072441890835,0.42542767159976064
1761141540774374100,2.7643740234375,-0.16773030981123446,-1.3091913779929278,0.24785985838510094
1761141540784434400,2.774434326171875,-0.5865799912601709,-1.1660618409529329,-0.2287996955409646
1761141540794493200,2.7844931640625,-1.1807768872648476,-0.8203251803793012,-0.4075816703183576
1761141540804553200,2.79455322265625,-1.412098502498865,-0.6999835214696825,-0.03551522122379392
1761141540814612500,2.804612548828125,-1.487564370110631,-0.9515933069728314,0.4217920915763825
1761141540824672300,2.81467236328125,-1.1388719284713267,-1.2004369887635111,1.4667945538043976
1761141540834732300,2.824732177734375,-0.39773441270589827,-1.1503769266955555,2.245896620174497
1761141540844791300,2.834791259765625,0.3116968821972608,-0.7675412463054061,1.6234943510353563
1761141540854851300,2.844851318359375,0.7003057391613722,-0.8554884098276495,1.1654507963825016
1761141540864910300,2.854910400390625,0.7896633540034294,-1.2691942986473441,0.8715830739296972
1761141540874970000,2.86497021484375,0.9325573287218809,-1.6210826137185095,0.42432475185915824
1761141540885029400,2.875029296875,0.8388561317175627,-1.6952335993394254,-0.454668379131332
1761141540895089400,2.88508935546875,-0.8287327971100806,-1.6015017149358988,-0.19361184310801327
1761141540905149200,2.895149169921875,-2.3474358173280954,-1.2452280243873595,-0.1976404045043513
1761141540915208400,2.90520849609375,-3.09973302501142,-0.7635284304674714,-0.28450083223581313
1761141540925268200,2.915268310546875,-2.7957734590679406,-0.5252781850140541,0.12159801564626395
1761141540935327200,2.9253271484375,-2.08007901211679,-0.4589100352890789,0.35323582068998366
1761141540945387300,2.93538720703125,-1.5751245801419018,-0.3777035781987011,0.42226643108986317
1761141540955446300,2.9454462890625,-1.3505693903028964,-0.4726898465774953,0.3388540979856625
1761141540965506300,2.95550634765625,-1.457200211507082,-0.6577889320798218,0.1781308904575184
1761141540975566300,2.96556640625,-1.690306956592202,-0.6820536047644913,-0.09653136066263542
1761141540985625300,2.975625244140625,-1.8102239603489636,-0.6273175137095153,-0.3362441346829757
1761141540995685400,2.985685302734375,-1.7499901486605405,-0.5100372881971299,-0.4954489004721865
1761141541005744000,2.995744140625,-1.6023130313187837,-0.4706739767104387,-0.5630803115986287
1761141541015804400,3.005804443359375,-1.3045949901133775,-0.40623584519997236,-0.528924432561919
1761141541025863200,3.01586328125,-0.9355115023523568,-0.36076208800897,-0.4529941257761791
1761141541035923200,3.025923095703125,-0.6162269415050745,-0.28166707011461256,-0.3981545378141105
1761141541045983200,3.035983154296875,-0.40673663432896134,-0.11542480690404772,-0.3666463237419724
1761141541056042200,3.046042236328125,-0.236025847402215,0.10120733485072851,-0.3444471687523648
1761141541066102300,3.056102294921875,-0.06728314567804336,0.1873999097906053,-0.2888605252826586
1761141541076161300,3.066161376953125,0.13865677554011344,0.15816928526163102,-0.2662029590010643
1761141541086221300,3.07622119140625,0.3211977009922266,0.17946648644283414,-0.2888434280173853
1761141541096280300,3.0862802734375,0.4059329167306423,0.15941913919225334,-0.33112375946193934
1761141541106340400,3.09634033203125,0.328791224861145,0.24421660651192068,-0.35649931599795814
1761141541116400000,3.106400146484375,0.2512099725306034,0.3444223631046712,-0.36823359293341634
1761141541126459400,3.11645947265625,0.3691302495121956,0.38259339606687426,-0.3355613035179674
1761141541136519200,3.126519287109375,0.7640992891579866,0.43997517932504415,-0.2015875712275505
1761141541146578400,3.136578369140625,1.317121294209361,0.4911271282829344,-0.06811382434852421
1761141541156638500,3.146638427734375,1.7878297577112912,0.5630171832345425,0.05351005639135837
1761141541166697200,3.156697265625,2.244410911661386,0.6760133016869425,0.132730600361526
1761141541176757200,3.16675732421875,2.5372651462227105,0.6364847166359424,0.217018145397678
1761141541186817300,3.1768173828125,2.7175381267428396,0.5437365825727581,0.3082313249785453
1761141541196876300,3.186876220703125,2.8424907865792512,0.5423711394384503,0.3585243920847773
1761141541206936300,3.196936279296875,2.937114359125495,0.5773264252245426,0.44689898723885413
1761141541216995300,3.206995361328125,3.017495471307635,0.5800488359257578,0.5847311485230923
1761141541227055400,3.217055419921875,3.073303867769241,0.539240440197289,0.7529590325929224
1761141541237114000,3.227114013671875,3.060517451432347,0.4617005427904427,0.9004987142253666
1761141541247174100,3.237174072265625,3.003475129261613,0.3630724107779562,0.8866918687995523
1761141541257234400,3.247234375,3.0538527328461407,0.33329511215165253,0.8664181654471903
1761141541267293200,3.257293212890625,3.294956321904063,0.31907953979447484,0.8950734012410044
1761141541277353200,3.267353271484375,3.557661501917243,0.2819979095041752,0.9575862637773156
1761141541287412500,3.27741259765625,3.7988317264705893,0.2578041100986302,0.9345556629322469
1761141541297472300,3.28747216796875,4.002887149116397,0.2048461346320808,0.6859199248038232
1761141541307531300,3.29753125,4.139796204206347,0.15707856741547582,0.31859774762690063
1761141541317591300,3.30759130859375,4.279272479435801,0.2232613506361842,0.04099336037393659
1761141541327651300,3.3176513671875,4.1788674008786675,0.11563611156716942,-0.31027722465768454
1761141541337710300,3.32771044921875,4.038679177987575,-0.0704002547852695,-0.7877659959495067
1761141541347770000,3.33777001953125,3.926691798186302,-0.08552066702768206,-0.9217305220201611
1761141541357829400,3.347829345703125,3.5849043136298655,0.03390533834174275,-0.8469764559395611
1761141541367889400,3.357889404296875,2.9002976633816955,0.3166686792604625,-0.820100870104134
1761141541377948200,3.3679482421875,1.9392057295709848,0.705691085461527,-0.7099929473739117
1761141541388008400,3.378008544921875,0.9904507147639989,0.9669592184089124,-0.6555242750834673
1761141541398068200,3.388068115234375,0.47687341587245463,0.9567886836588382,-0.44310087359752504
1761141541408127200,3.398127197265625,0.6977081238836049,0.9324873322255909,-0.21380163103658706
1761141541418187300,3.408187255859375,1.1162485932528972,0.7901987760543823,-0.17032971518728882
1761141541428246300,3.418246337890625,1.2148100897699594,0.47561318667829033,-0.31146877252981064
1761141541438306300,3.428306396484375,1.019787283885479,0.17754867012277245,-0.8168532664850354
1761141541448365300,3.438365234375,-0.008006780844926833,-0.10434344091936945,-1.5828127965569496
1761141541458425300,3.44842529296875,-1.8643869276911018,-0.22163491847813127,-2.160092752291262
1761141541468484400,3.458484375,-3.6713024941444394,-0.16375000800341366,-2.4432589749224483
1761141541478544100,3.468544189453125,-5.276952560931444,0.09586042086482048,-2.6910516863554714
1761141541488604400,3.4786044921875,-6.365647961348295,0.18553294687494634,-3.049600336098671
1761141541498661600,3.48866162109375,-6.9873197242558,0.08168897991031408,-3.0377804267063735
1761141541508721700,3.4987216796875,-7.323354344373941,-0.237689396700263,-2.6655685777917504
1761141541518780700,3.50878076171875,-7.544626274758577,-0.8503200672790407,-2.5784531889185307
1761141541528840700,3.5188408203125,-8.00708654987514,-1.5252607712984083,-2.9138930580139157
1761141541538899700,3.528899658203125,-9.352732512301206,-2.254343399871886,-3.389447207981348
1761141541548959700,3.538959716796875,-11.615579244363307,-2.765559814850986,-3.7178248836055396
1761141541559019500,3.54901953125,-14.559984345018863,-2.339366784901917,-3.66509136454463
1761141541569078800,3.559078857421875,-18.0098372141242,-1.462045021189749,-3.001180296322703
1761141541579138800,3.569138916015625,-20.778114178979397,-0.8886839924648403,-2.1287176630795
1761141541589197600,3.579197509765625,-21.983040588116644,-1.0501114027395844,-1.0681247599445283
1761141541599257600,3.589257568359375,-21.692140410232543,-1.895392306807637,-0.06909910905882716
1761141541609316600,3.599316650390625,-20.501726510572432,-2.896012533408403,0.1990761729285121
1761141541619376600,3.609376708984375,-18.841665639162063,-4.0710725043311715,-0.3432509812377393
1761141541629436700,3.619436767578125,-17.127091087275744,-5.297639959651232,-0.9820249778546393
1761141541639495700,3.62949560546875,-15.081541536748409,-6.028028117865324,-1.5959689229890703
1761141541649555700,3.6395556640625,-12.761570649451016,-6.112395669335126,-1.533863179948926
1761141541659614500,3.649614501953125,-10.540029741245508,-5.462204498907924,-0.5700295462146401
1761141541669674800,3.6596748046875,-8.431360009938478,-4.2998873974412675,0.1849798430368304
1761141541679733800,3.669733642578125,-6.4255228765964505,-3.1307509713485837,0.171854696264863
1761141541689793500,3.67979345703125,-4.249792117929458,-2.4052862410113214,-0.018268939401209352
1761141541699853600,3.689853515625,-1.582129490467906,-1.6857503162011502,-0.326252938555181
1761141541709912800,3.699912841796875,1.7089356692165136,-1.001342111134529,-0.7652557657167315
1761141541719972600,3.70997265625,4.635921433037519,-0.323910467082262,-1.197199906538427
1761141541730031600,3.720031494140625,6.691777858045697,0.5570011378154158,-1.5853981368750334
1761141541740091600,3.730091552734375,7.737939354115724,1.582599446067214,-1.3280720195516944
1761141541750150700,3.740150634765625,8.752961615556478,2.8924107095241545,-0.8133072644412517
1761141541760210700,3.750210693359375,9.464187392660975,4.204146219041943,0.5355380785480142
1761141541770270500,3.7602705078125,10.388013133394718,5.3570262145996095,1.9814558485403655
1761141541780329700,3.770329833984375,11.306830106055736,6.094490594810247,3.497813474676013
1761141541790389800,3.7803896484375,12.179799519777298,6.218028127151728,4.998334356993436
1761141541800448800,3.79044873046875,12.631454907763004,6.066109718978405,6.330843189948797
1761141541810508800,3.8005087890625,12.927891676986217,5.672814165502786,7.378744807684421
1761141541820567600,3.810567626953125,13.257403032815455,5.268260720431805,7.575092724692821
1761141541830627600,3.820627685546875,12.653194445884226,4.974657713329791,8.179089714699984
1761141541840686600,3.8306865234375,12.385904276168345,4.947665076985955,9.053851272535324
1761141541850746600,3.84074658203125,12.200026315248012,5.124031697717308,8.129453284871579
1761141541860806700,3.850806640625,11.429151832866667,4.899772860476374,7.433119371950626
1761141541870865700,3.86086572265625,10.4288150993824,4.61943382409513,6.936611865803599
1761141541880925700,3.87092578125,9.058328710210322,4.387542884540558,6.843897926270961
1761141541890984700,3.880984619140625,7.918868752717971,4.3791739923849695,5.864840712180733
1761141541901044500,3.89104443359375,6.525495993477105,4.3242835875511165,5.534371909496188
1761141541911103700,3.901103759765625,5.397659253761172,4.244430006374419,5.363499210005998
1761141541921163500,3.91116357421875,4.493773308250308,4.28378791103363,5.192382764887809
1761141541931223600,3.9212236328125,3.906584829702973,4.282547555583715,5.120341611027717
1761141541941282800,3.93128271484375,3.593248948127031,4.323911831629276,4.965265615606308
1761141541951342600,3.941342529296875,3.472250578874349,4.3714054042100905,4.888479020784795
1761141541961401600,3.951401611328125,3.5079654508560894,4.438372031284868,4.9683717649281025
1761141541971462000,3.9614619140625,3.6286966936051845,4.5585237205803395,5.141823959517478
1761141541981520600,3.971520751953125,3.8431934307664632,4.6576945811674,5.318122775709629
1761141541991580700,3.98158056640625,4.119917783781886,4.685343343332409,5.459072046101093
1761141542001640400,3.991640380859375,4.463813054272532,4.6911458921313285,5.62812162181735
1761141542011699700,4.00169970703125,4.89256278296709,4.713242280866205,5.6212377075225115
1761141542021759700,4.011759765625,5.349584666422009,4.685099013182521,5.595322929543256
1761141542031818800,4.02181884765625,6.099025315630436,4.488006707547605,5.527894822436571
1761141542041878800,4.031878662109375,6.91036858652234,4.1427351802676915,5.407374592089653
1761141542051937500,4.0419375,7.460933846071362,4.023367042565345,5.290812743979692
1761141542061997600,4.05199755859375,7.778432108023762,4.014834192019701,5.279823732453584
1761141542072056800,4.062056884765625,7.989998052430153,3.8935646046102046,5.347267037129402
1761141542082116600,4.07211669921875,8.106066564065218,3.7823502550080415,5.091867211693525
1761141542092176600,4.0821767578125,8.091006942099332,3.633781449523568,4.554637819057703
1761141542102235600,4.092235595703125,8.03824799633622,3.3216379926025867,3.8302085692480206
1761141542112295700,4.102295654296875,7.38035165835917,3.029894934153557,3.067597765082121
1761141542122354700,4.112354736328125,5.997254209417104,2.7848578050389885,2.5476833721235392
1761141542132414500,4.12241455078125,4.399072578814626,2.5965236831381917,2.0960405513584615
1761141542142473700,4.1324736328125,2.3533815739899873,2.3840976147711275,1.434499427138269
1761141542152533800,4.14253369140625,-0.41155893991887565,1.67356332706213,0.606570932148397
1761141542162593500,4.152593505859375,-4.09296021875143,0.37471067999303337,0.670592737942934
1761141542172652800,4.16265283203125,-8.161310312381387,-1.5074875064596533,1.901812110722065
1761141542182712600,4.172712646484375,-10.31939377067685,-2.8970202491462227,1.7016709389105438
1761141542192771600,4.182771484375,-10.455199248439072,-2.9157445310994983,-1.4207725150808692
1761141542202832000,4.192831787109375,-12.229184605193137,-3.5496889156028626,-4.964772863653302
1761141542212890600,4.202890625,-15.918097574830055,-5.375585369119047,-7.240733344310522
1761141542222950700,4.21295068359375,-19.1611454303205,-5.99373772572875,-8.259863625591993
1761141542233010700,4.2230107421875,-20.16804166845083,-5.53283870857954,-8.069697612088918
1761141542243069700,4.233069580078125,-18.810798207211494,-5.103056129705906,-7.130735677021741
1761141542253129700,4.243129638671875,-16.704584636884928,-4.394422999443114,-6.221517722833156
1761141542263188500,4.2531884765625,-15.05792802144885,-3.098146048080921,-5.100170345136523
1761141542273248800,4.263248779296875,-13.681426902031898,-1.2957418215721845,-3.433052248691022
1761141542283307500,4.2733076171875,-11.754149510663748,0.4385926389254629,-1.6574650096982717
1761141542293367600,4.283367431640625,-9.913561391711234,1.7002664789400994,-0.9186524297490716
1761141542303427600,4.293427490234375,-8.465196228566766,2.2255631494589148,-0.8411696693569422
1761141542313486600,4.303486572265625,-7.429372586637735,2.271596294098347,-0.9678557288572192
1761141542323546600,4.313546630859375,-6.597225012648106,2.0836574551254508,-1.2170233819052576
1761141542333606000,4.32360595703125,-5.880224743795394,2.066214591284841,-1.4348176993072033
1761141542343665700,4.333665771484375,-4.966391404765844,1.8952092053256928,-1.796241612225771
1761141542353724700,4.343724609375,-3.2247996666163203,1.295433924666792,-2.514104635387659
1761141542363784400,4.353784423828125,-0.7134463757634163,0.4418685918562114,-3.5287621551692485
1761141542373843700,4.36384375,1.4227356318473816,-0.4067144224971533,-4.379986185550689
1761141542383903700,4.37390380859375,2.598648712468147,-1.1544428609602153,-4.446991683331132
1761141542393963500,4.383963623046875,3.283347132652998,-1.92454621283859,-4.072304968735575
1761141542404022800,4.394022705078125,3.538106322097778,-2.2970082371219993,-3.459420323395729
1761141542414082800,4.404082763671875,3.899665844094753,-2.2232449356444177,-2.1870766208067534
1761141542424141600,4.4141416015625,4.3632975010782475,-1.8992925291165708,-1.1883113744229077
1761141542434201600,4.42420166015625,4.747226091271639,-1.594103567508608,-0.7090121927082538
1761141542444260600,4.434260498046875,4.9602691224932665,-1.461268629989773,-0.20998218234628438
1761141542454320600,4.444320556640625,5.130278483152389,-1.2956814696870744,-0.03961947820484638
1761141542464380700,4.454380615234375,5.167108038377761,-1.2765902541175485,-0.15913988385945557
1761141542474439700,4.464439697265625,4.965285489350557,-1.6453886413268743,-0.08523995039016008
1761141542484499700,4.474499755859375,4.461736832520366,-1.985923641604185,-0.22190759793967008
1761141542494558500,4.484558349609375,4.181569061052799,-2.1781021639734504,-0.30424452036470173
1761141542504619000,4.494618896484375,4.693572827017307,-2.1615775840215385,-0.2772092139229178
1761141542514678300,4.50467822265625,5.045436299908161,-2.059549726568162,-0.2573337161079049
1761141542524738000,4.514738037109375,4.982598443201184,-2.179686802816391,-0.1092071014329791
1761141542534797300,4.52479736328125,4.4518934838980435,-2.0995035512939095,0.03134615537822246
1761141542544857000,4.534857177734375,3.0382483364790676,-1.7962223230034111,0.16512714157551525
1761141542554917000,4.544917236328125,1.1032038182407617,-1.5092258745595812,0.044270518881082535
1761141542564976000,4.55497607421875,-0.81437343236804,-1.5104364193931221,-0.7589350382626057
1761141542575036200,4.5650361328125,-2.332576101848483,-1.6553817736834286,-2.1855247151896355
1761141542585095200,4.57509521484375,-3.405155649244785,-1.5923875573709607,-3.5707393024161456
1761141542595155200,4.5851552734375,-4.426453337693214,-1.381200967670977,-4.479216959631443
1761141542605214200,4.595214111328125,-5.214730205774307,-1.218534955511987,-4.876813425171375
1761141542615274200,4.605274169921875,-4.866274495500326,-0.8687295841947198,-4.578748762485385
1761141542625334000,4.615333984375,-3.571941371682286,-0.37038580253124237,-3.737822838756442
1761141542635393000,4.62539306640625,-2.227895245668292,-0.022026538369059562,-3.052359863939881
1761141542645453300,4.635453369140625,-1.433451087129116,0.14421850132048128,-2.7887036668121814
1761141542655512000,4.645511962890625,-0.8284621634751558,0.3278291018307209,-2.267149397692084
1761141542665572000,4.655572021484375,-0.3775561325520277,0.5884893320128322,-1.6516572002023457
1761141542675631000,4.665631103515625,0.041482349467277524,0.9141358291074633,-1.0253872958496213
1761141542685691100,4.675691162109375,0.17070961788296699,1.2603639264598487,-0.654902416858077
1761141542695750100,4.685750244140625,-0.10302841279804706,1.546427477967739,-0.3988020419374108
1761141542705810200,4.69581005859375,-0.24008710549175738,1.7705258639499544,0.15465601644366977
1761141542715870200,4.7058701171875,0.061681087887287135,2.0069430487573148,0.8338388880774378
1761141542725929000,4.715928955078125,0.5399567717730999,2.225785413907468,1.4804656440213322
1761141542735989000,4.725989013671875,1.1731366016447544,2.3528408912420273,1.949151369524002
1761141542746048300,4.73604833984375,1.9718208819717167,2.169315046405792,2.093605140905082
1761141542756108000,4.74610791015625,2.53788123229444,1.8983315751299261,1.7671745076954364
1761141542766167000,4.7561669921875,2.5471155091077087,1.5224831232786178,1.3221797466427088
1761141542776227300,4.766227294921875,2.447412441340089,1.1801268989235163,0.8971262421175837
1761141542786287000,4.776287109375,2.366063945430517,0.9888917948842048,0.385435195364058
1761141542796346000,4.78634619140625,2.0101824690699575,0.8008923117652536,-0.2841118329182267
1761141542806406100,4.79640625,1.4301064528763294,0.6581678483948111,-0.881558670629561
1761141542816465200,4.806465087890625,0.9198235193550586,0.6144876966223121,-1.1848390221372247
1761141542826525200,4.816525146484375,0.7864841394454241,0.6219020645320416,-1.0945958566322922
1761141542836584200,4.826584228515625,0.7349830847889185,0.647535687482357,-0.8424778293460607
1761141542846644200,4.836644287109375,0.5628185919225216,0.6754302411019801,-0.6692030371502041
1761141542856703000,4.846702880859375,0.2923749266117811,0.6541314324855804,-0.5205030065014958
1761141542866763000,4.856762939453125,0.07201251228749751,0.6698758218452334,-0.36705548906475305
1761141542876823300,4.8668232421875,-0.203177470767498,0.6933546048492193,-0.23396774582862853
1761141542886882000,4.876882080078125,-0.16762918752431868,0.6468748854860663,0.06930880628675222
1761141542896942000,4.886942138671875,0.2917904047220945,0.566335075610876,0.47242608107477424
1761141542907001000,4.8970009765625,0.8155921605080365,0.43735681352019307,0.7939674809381365
1761141542917061000,4.90706103515625,1.1978753215819598,0.2990036971017718,1.0413219470843673
1761141542927120100,4.9171201171875,1.303034901189804,0.19382132114022968,1.1194687243431807
1761141542937180200,4.92718017578125,1.120564702886343,0.11463058778643608,1.0279694212973116
1761141542947239200,4.9372392578125,0.8806500313520431,0.029736966615915298,0.9532476500511169
1761141542957299200,4.94729931640625,0.7765870148092507,-0.06087357089668512,0.9131181764975189
1761141542967359000,4.95735888671875,0.7007669269323349,-0.15243424874097108,0.9439458609595894
1761141542977418200,4.967418212890625,0.6811772603213787,-0.1512678353101015,1.0321817782953382
1761141542987478000,4.97747802734375,0.6974848365217446,-0.1431687000066042,1.0621391096636652
1761141542997537000,4.987537109375,0.6865589533597231,-0.19208412208408115,1.0352119397714734
1761141543007597300,4.997597412109375,0.2987807020008564,-0.224781692071259,0.7609732660919427
1761141543017656000,5.007656005859375,-0.3792857328236103,-0.1339583885908127,0.4609107075870037
1761141543027716000,5.017716064453125,-0.8071323751986026,-0.25109832884967326,0.2220063821390271
1761141543037775000,5.027775146484375,-0.7990460993766784,-0.4609902025640011,0.18442746985107658
1761141543047835100,5.037835205078125,-0.4893342535167932,-0.5993491642013192,0.1623041931092739
1761141543057895200,5.047895263671875,-0.35079204426705834,-0.6993804410099983,0.11189502534270286
1761141543067954200,5.0579541015625,-0.3990975177526474,-0.810908386605978,0.14475363111048936
1761141543078014200,5.06801416015625,-0.41084056251645085,-0.8396006664745509,0.24284341846257446
1761141543088073000,5.078072998046875,-0.4179635462641716,-0.8278748651064932,0.3250169670194387
1761141543098133000,5.088133056640625,-0.49311084944605826,-0.8125180137597025,0.3923565190598368
1761141543108192300,5.098192138671875,-0.5784294180303812,-0.7905116413958371,0.26525018832087516
1761141543118252000,5.108251953125,-0.5804653077721595,-0.8152316566325724,0.07509469621181487
1761141543128311000,5.11831103515625,-0.45666415605843064,-0.8009297211661934,0.10650719482451677
1761141543138371300,5.128371337890625,-0.26226561955213545,-0.7416409352429211,0.14631898073107003
1761141543148431000,5.13843115234375,-0.1538297947525978,-0.6801020323053002,0.1742579580143094
1761141543158490000,5.148489990234375,-0.06514964078068733,-0.6663527622856199,0.15197627584040163
1761141543168550000,5.1585498046875,0.049177580145001405,-0.6477351555772125,0.028594226321578025
1761141543178609200,5.168609130859375,0.11148410645425319,-0.6309406726427376,-0.1499716580197215
1761141543188669200,5.178669189453125,-0.0255453601449728,-0.6385118385493755,-0.2819552394062281
1761141543198728200,5.188728271484375,-0.15257190364599227,-0.6006552783638238,-0.29933599779605863
1761141543208788200,5.198788330078125,-0.18762977302372455,-0.4570573931597173,-0.22399054169356822
1761141543218848300,5.20884814453125,-0.10393909790217876,-0.34947307062298055,-0.133004741127789
1761141543228907000,5.218906982421875,0.028192075261473656,-0.24924217958897352,-0.04316401894390583
1761141543238967300,5.22896728515625,0.07589724476635455,-0.18140885268226264,-0.020151684407889843
1761141543249026000,5.239026123046875,0.1583002181649208,-0.13947817492559553,-0.028223931704461573
1761141543259086000,5.249086181640625,0.2837777786582708,-0.08859685960263013,-0.05867781441807746
1761141543269145000,5.25914501953125,0.4946855514168739,-0.017228928828984497,0.020680092196166514
1761141543279205000,5.269205078125,0.7392407422333955,0.033008827893435955,0.07380231831371784
1761141543289264000,5.27926416015625,0.9327280091136694,0.10176730682104826,0.03714373574107885
1761141543299324200,5.28932421875,1.0548235259532928,0.19426716521158813,-0.14700491716861724
1761141543309384200,5.29938427734375,1.255512687036395,0.34044615295007824,-0.24902766005545854
1761141543319443200,5.309443115234375,1.473238907638192,0.5437785220183432,-0.3549731293439865
1761141543329503000,5.3195029296875,1.6335568953663109,0.7252027184002101,-0.4448316794455051
1761141543339562200,5.329562255859375,1.709585657557845,0.8121160088300704,-0.4929238024413585
1761141543349622000,5.3396220703125,1.712241725024581,0.8053462224341928,-0.49551498797833915
1761141543359681000,5.349680908203125,1.7296300821989774,0.7692775685787201,-0.5248039185658097
1761141543369741300,5.3597412109375,1.7914947099596261,0.6471930115245282,-0.523221910071373
1761141543379800000,5.369800048828125,1.8838468304425477,0.5877263848163187,-0.5816381509438157
1761141543389860000,5.379860107421875,1.9499813906073569,0.5630069541014731,-0.6098483463838696
1761141543399920000,5.389920166015625,2.0334657295018435,0.5112113004125655,-0.5092848623946309
1761141543409979100,5.399979248046875,2.098406111446023,0.43481238973438735,-0.41706075220555067
1761141543420039200,5.4100390625,2.134326150611043,0.38379108141884205,-0.38423546418547627
1761141543430098200,5.42009814453125,2.1455787815093994,0.31831600807607174,-0.3708370534300804
1761141543440158200,5.430158203125,2.154127414146066,0.2365004791766405,-0.2736217108249664
1761141543450217000,5.440217041015625,2.1955933970004318,0.14602584300339222,-0.13828618866205214
1761141543460277000,5.450277099609375,2.249534830546379,0.0536276914216578,-0.06919599356204272
1761141543470336300,5.460336181640625,2.346325225737691,-0.06414389780424534,0.09496317976415157
1761141543480396000,5.47039599609375,2.5089450606673953,-0.18541399667039513,0.32759529307484625
1761141543490456000,5.4804560546875,2.782033103007078,-0.36551162062361836,0.523484652660787
1761141543500515000,5.49051513671875,3.150288323250413,-0.6002393910393119,0.5772939842596649
1761141543510575000,5.5005751953125,3.4933033037751913,-0.8413548166655004,0.5480877635195851
1761141543520633900,5.5106337890625,3.677444650161266,-0.8975920329984277,0.39017946728169917
1761141543530694000,5.52069384765625,3.6676334502428767,-0.6870196296740323,0.16047347055077552
1761141543540753000,5.5307529296875,3.5977421678930517,-0.269221503104642,-0.08556436003893614
1761141543550813000,5.54081298828125,3.4331752905488013,0.04319814040921628,-0.23100772697925567
1761141543560872200,5.5508720703125,3.1996424290060994,0.2911327079983428,-0.3193433052971959
1761141543570932000,5.560931884765625,3.026444501438737,0.453825498566404,-0.44649113709032534
1761141543580992000,5.570991943359375,3.004796733254194,0.5051391043594107,-0.5549076726675033
1761141543591051000,5.581051025390625,3.1761189300775525,0.5073173617139458,-0.5880285826332867
1761141543601111000,5.591111083984375,3.461868301069736,0.36439595099929717,-0.6172149296291172
1761141543611170000,5.601170166015625,3.748067169395089,0.06880710840888786,-0.9030398500755429
1761141543621229800,5.611229736328125,4.175400601550937,-0.12725836122920736,-1.3854153704956174
1761141543631289000,5.6212890625,4.540827904891968,0.01926982353944331,-1.8916008055701852
1761141543641349000,5.63134912109375,3.7267455644249914,0.29251893819235264,-2.0996020432323217
1761141543651408000,5.641407958984375,2.0987176616132257,0.39963849276155233,-1.631372829325497
1761141543661468000,5.651468017578125,0.5602548789143562,-0.2467281509414315,-1.052947649078816
1761141543671528200,5.661528076171875,-0.5022328980565071,-1.2050059041142462,-0.24003406013026832
1761141543681587000,5.6715869140625,-1.9574539184451103,-0.8885800936989485,-1.2251420986920594
1761141543691647000,5.68164697265625,-3.8188077620506284,-0.6159517778255045,-1.7204431516587733
1761141543701706000,5.6917060546875,-6.011967209902405,-0.5944488249391316,-2.1058274936184285
1761141543711766000,5.70176611328125,-9.29858591157198,-0.4799008739348501,-2.775632296054065
1761141543721824800,5.71182470703125,-13.80121180384159,0.23635317966043948,-3.4332515706554054
1761141543731885000,5.721885009765625,-18.669912065184114,1.9017396300077438,-3.2712592199742794
1761141543741944000,5.731944091796875,-22.46151617848873,2.975810292744636,-1.1600580704934895
1761141543752003800,5.74200390625,-24.4264706818223,4.814189795736969,-0.564621988082677
1761141543762064000,5.75206396484375,-25.848787795996664,6.396614762020111,-1.2413938530519604
1761141543772123100,5.762123046875,-27.975264402151105,7.336739311125874,-1.9603652758471666
1761141543782183000,5.772182861328125,-29.782554647135733,8.235203231588006,-2.074049814955145
1761141543792242200,5.7822421875,-29.17684266990423,8.35020791338384,-1.1358736234381794
1761141543802302000,5.792302001953125,-25.697906329655645,7.829022477576136,-0.3729901398107409
1761141543812361000,5.80236083984375,-20.971392187023163,6.723418027934431,0.6691461923964321
1761141543822421000,5.8124208984375,-16.753414426505564,5.40816252759695,2.204606724539399
1761141543832481000,5.82248095703125,-13.97801330885887,4.962052498778701,3.5738173946872354
1761141543842540000,5.8325400390625,-11.783636301910876,5.2370250396907325,4.088318530425429
1761141543852600000,5.84260009765625,-7.9924635657608505,5.832124437493086,3.4724703591048716
1761141543862659000,5.8526591796875,-7.0902902693867675,3.3786507964178916,5.284813211303949
1761141543872719000,5.862718994140625,-3.742248253983259,1.0687950604215264,3.7914407394364473
1761141543882777900,5.87277783203125,1.1872791087657213,-1.3254419633090495,2.5183204995170234
1761141543892838000,5.882837890625,5.22886219150126,-4.6409231868475675,3.039706426332891
1761141543902897000,5.89289697265625,8.904086243003606,-5.8683332304716105,2.234301605579257
1761141543912957000,5.90295703125,10.645150157886743,-5.738229179221391,1.53701638328284
1761141543923017000,5.913016845703125,10.619950250178574,-5.587494427874684,1.3517346346899866
1761141543933076000,5.923075927734375,10.263285514485835,-5.312815316951275,1.45131962903589
1761141543943136000,5.933135986328125,10.106699114501476,-5.081859027898311,1.8279495866537092
1761141543953195000,5.943195068359375,10.085900656622648,-4.721396361227333,2.530762340199947
1761141543963255000,5.953255126953125,10.631849946808815,-3.9362715274363755,3.348172948306799
1761141543973314000,5.96331396484375,11.489570353472232,-3.1062276477277275,4.070314671701192
1761141543983373800,5.973373779296875,11.913902850246428,-2.4182439222618934,4.79054793112576
1761141543993433000,5.98343310546875,12.162269708305596,-1.707154777149111,5.2022389729917045
1761141544003493000,5.9934931640625,12.12002163516283,-0.9463094482857733,5.496758510416746
1761141544013551900,6.0035517578125,11.791403428781031,-0.3057932111114263,5.6148196571737525
1761141544023612000,6.01361181640625,11.372567775857448,0.02532010002173483,5.597465786790847
1761141544033672200,6.023672119140625,11.034323662996291,0.08691818580068647,5.5185565007269375
1761141544043731000,6.03373095703125,10.884138946747779,0.08540390878021717,5.366278027069568
1761141544053791000,6.043791015625,10.56610058656931,0.05784523605145514,5.0685482954263685
1761141544063850000,6.05385009765625,9.844412452161311,0.055363867564499375,4.65230412030071
1761141544073910000,6.063909912109375,8.910939762160181,0.2714695012271404,4.255374886497855
1761141544083969000,6.073968994140625,7.894328770223259,0.5196617333717644,4.069660883967578
1761141544094029000,6.084029052734375,7.2744000515908,0.9587053309351206,4.0998964477553965
1761141544104088000,6.094088134765625,7.2150465298682445,1.6991218389496205,4.002568584686517
1761141544114147800,6.10414794921875,7.4763418430835005,2.227200541402399,3.848197814925015
1761141544124207900,6.114207763671875,8.14019036746323,2.0741813323803244,3.377165818557143
1761141544134267100,6.12426708984375,8.858637327992916,1.60301460371688,2.677506560605764
1761141544144327000,6.134326904296875,9.327304056534171,1.2275251944363117,1.9233825758866965
1761141544154386000,6.144385986328125,9.726499773964285,1.1327566604614256,1.2872639160841703
1761141544164446200,6.1544462890625,9.641052026042342,1.088422282563895,0.9317679319098591
1761141544174505000,6.1645048828125,9.099352794516086,0.9564585749216378,0.8749578110598027
1761141544184565000,6.17456494140625,8.374549158436059,0.9745009390253573,0.943784898244217
1761141544194624000,6.1846240234375,7.691737574911117,1.076755664037168,1.0340672997809945
1761141544204684000,6.19468408203125,7.195012042099237,1.1354281446930021,1.277452716165781
1761141544214744000,6.204744140625,7.088149165704846,1.256172612249851,1.500758344335109
1761141544224803000,6.214802978515625,7.43337363897264,1.26410588946715,1.5522411326825618
1761141544234863000,6.224863037109375,7.849926149395108,1.0497060368090867,1.705161703635752
1761141544244921900,6.234921875,8.081195157659053,0.9552704611156135,1.7783906059756873
1761141544254982000,6.24498193359375,8.138144540849327,1.007925581178069,1.7816852636069058
1761141544265041200,6.255041259765625,7.69134010002613,1.2236525907866656,1.635859911611676
1761141544275101000,6.265100830078125,7.090148230567574,1.6588099945664405,1.4842162287265062
1761141544285160200,6.27516015625,6.75333678085804,1.8783125771909952,1.3710070520453155
1761141544295220000,6.285219970703125,6.899211817213892,2.0268948266789315,1.0003306690696627
1761141544305280000,6.295280029296875,6.56032589931786,2.5222426413968204,0.7094858015693724
1761141544315339000,6.305339111328125,5.622160667586327,2.727547187320888,0.8920783110782503
1761141544325399000,6.31539892578125,4.524398163616657,2.7595778178319335,1.2800688900135457
1761141544335458000,6.3254580078125,3.45438291375041,2.6957655631348487,1.6886051211103796
1761141544345518000,6.33551806640625,2.4012983404189345,1.2780807849362492,3.0081133104562756
1761141544355577000,6.3455771484375,1.352414725908637,-0.6287409706413746,3.610824936828017
1761141544365637000,6.35563720703125,-0.8384726853579282,-1.8390071333713829,2.3466426211237907
1761141544375696000,6.36569580078125,-6.024663609868288,-3.6838597779005764,0.7036850794013589
1761141544385756000,6.375755859375,-13.37912270208001,-6.098850543585419,-0.5570606129176915
1761141544395816200,6.385816162109375,-19.757045623111722,-6.158727796921133,-0.2343476485243067
1761141544405875000,6.395875,-23.23117017916441,-3.1292160168662666,0.49981809199973937
1761141544415935000,6.40593505859375,-25.074322011125087,-1.132891246626526,0.6298422829467802
1761141544425994000,6.415993896484375,-26.893286327290532,-0.3001350392192602,-0.5700291078232228
1761141544436054000,6.426053955078125,-27.4727369050622,-0.25728695435673,-1.3616602547682821
1761141544446113000,6.436113037109375,-26.008116772687433,-0.972499024618417,-1.450556097317487
1761141544456173000,6.446173095703125,-22.860527187001704,-1.9744030074194072,-1.6233207480341194
1761141544466232000,6.456232177734375,-18.971245958799123,-2.3795026881963013,-1.8380723367393015
1761141544476291800,6.466291748046875,-14.440400518739223,-2.2424542246356607,-2.0117627239987255
1761141544486351000,6.47635107421875,-10.919567987525463,-1.8247110431239009,-2.4073740070708096
1761141544496411100,6.4864111328125,-10.295630617773533,-1.1886832034099846,-3.318280206607282
1761141544506471000,6.496470947265625,-10.986087747615574,-0.26659151992723346,-3.4010794858470557
1761141544516530000,6.506530029296875,-10.039860205459593,0.867049156827107,-2.6938030308902263
1761141544526590200,6.516590087890625,-7.5012576731532805,1.8469484477646647,-1.2907608182892203
1761141544536649000,6.52664892578125,-4.576210183918476,2.371105446729064,-0.18564486455051227
1761141544546709000,6.536708984375,-1.7431611794233322,2.237787401868403,0.25885847798977046
1761141544556768000,6.54676806640625,0.6355833838820457,1.4518003982901573,0.15516944585852324
1761141544566828000,6.556828125,2.320861698657274,0.6996916989162564,-0.32202823353223503
1761141544576886800,6.56688671875,3.350777577847242,0.049095381754264235,-0.9348309727422892
1761141544586947000,6.576947021484375,4.200146920272708,-0.4085433184247464,-1.2044034812416882
1761141544597007000,6.587007080078125,5.010200151354074,-0.3645034664943814,-1.1845664888061582
1761141544607065900,6.59706591796875,5.808360115545987,-0.04163191400580108,-1.0176578706413506
1761141544617126000,6.6071259765625,6.427700220635533,0.4017527815017849,-0.9444389782387763
1761141544627185200,6.61718505859375,6.62974313441515,0.8667603299483656,-1.0274953740447759
1761141544637245000,6.627244873046875,6.713017045429349,1.1143069576658309,-0.9811002642251551
1761141544647304000,6.637303955078125,6.788895585495233,1.2809060714900493,-0.9810608089976012
1761141544657364000,6.647364013671875,6.860179198986292,1.3027009930603206,-1.1599982300650327
1761141544667423000,6.657423095703125,6.790017283001542,1.051667692270875,-1.5312259633131324
1761141544677483000,6.66748291015625,6.367817706602811,0.7125466504447162,-1.576687299413979
1761141544687543000,6.67754296875,5.600795807996392,0.2947708818376064,-1.2962785587973893
1761141544697602000,6.68760205078125,4.979651283833384,-0.1575023457854986,-1.1634119840312749
1761141544707662000,6.697662109375,4.6335137873739,-0.5527049019262195,-0.8570731948010623
1761141544717721000,6.70772119140625,4.797595511549711,-0.928705913990736,-0.34933961696904153
1761141544727781000,6.717781005859375,5.172939228749275,-1.2226266087397932,0.1021024570595473
1761141544737839900,6.72783984375,5.188886154943704,-1.4420418053418398,0.5465497037647292
1761141544747900000,6.73789990234375,5.1660558989763254,-1.8036352296084164,0.871743817449361
1761141544757959000,6.747958984375,4.929837743872404,-2.025950823827088,0.6971804467476904
1761141544768019000,6.75801904296875,4.2844636183381075,-1.9161197452768681,0.15060338005200027
1761141544778078000,6.768077880859375,3.350046340963244,-1.641501716890931,-0.4497514175279066
1761141544788138000,6.778137939453125,1.6616589542567728,-1.2797802823305129,-0.9233984552323817
1761141544798198000,6.788197998046875,-0.6248170751959085,-0.4896569095999002,-1.2119112995885313
1761141544808257000,6.798257080078125,-2.858278138297796,0.6825944336429238,-1.4202408924221992
1761141544818317000,6.808317138671875,-4.631225384175777,2.0393173781394958,-1.0747635403718798
1761141544828376000,6.8183759765625,-5.389840104442834,3.125556325314939,-0.1786346387285739
1761141544838435800,6.828435791015625,-4.538833516204357,3.745001352083683,0.9272931976485997
1761141544848495000,6.8384951171875,-2.591588272562623,3.976093250215053,1.861412295794487
1761141544858555100,6.84855517578125,-0.5037561621010304,3.6007267366617914,2.165068202616274
1761141544868614000,6.85861376953125,0.9951192910969257,2.7599896135032176,1.9342679809078573
1761141544878674000,6.868673828125,1.8175673088490962,1.9144608721539378,1.562671925804019
1761141544888734200,6.878734130859375,2.243842756384611,1.2579884295001624,1.1793325336754321
1761141544898793000,6.88879296875,2.4346073203027245,0.7626321392148733,0.7826061289682984
1761141544908853000,6.89885302734375,2.4140122760415075,0.38245851764082905,0.4016522072041407
1761141544918912000,6.908912109375,2.3664017990827557,0.045560850952565665,0.265130580529198
1761141544928972000,6.918971923828125,2.354054943206906,-0.09699249363467097,0.1363645729497075
1761141544939030800,6.92903076171875,2.1022522654801605,-0.0501996166691184,-0.06494768846780061
1761141544949091000,6.939091064453125,1.728202095222473,0.14287687745317815,-0.030123152921907603
1761141544959150000,6.949150146484375,1.5145944158554077,0.34864114984348415,0.18077676532380282
1761141544969209900,6.9592099609375,1.369582133808732,0.4380975488848984,0.4285650928426534
1761141544979269000,6.96926904296875,0.9166361214905977,0.4798533084660768,0.663507455857098
1761141544989329200,6.9793291015625,0.1790098287165165,0.5611673175841569,0.7602695017367601
1761141544999389000,6.989388916015625,-0.4887549923241138,0.5789310839422047,0.8172429964549839
1761141545009448000,6.999447998046875,-0.927476664456725,0.46894598387405273,0.7657704372406006
1761141545019508000,7.009508056640625,-1.2971446741074324,0.20293270222619175,0.4562884546138346
1761141545029567000,7.01956689453125,-1.8252163622975348,-0.047453532831370826,0.15164360981993377
1761141545039627000,7.029626953125,-2.12836402733624,-0.12373422395735978,0.06569193096384406
1761141545049686000,7.03968603515625,-2.016767108157277,-0.11038476691022514,0.19721622427552937
1761141545059746000,7.04974609375,-1.641772350525856,-0.16096929124370216,0.2387682049129158
1761141545069804800,7.0598046875,-1.4944307487487791,-0.20058657749146222,0.14353702186234293
1761141545079865000,7.069864990234375,-1.827550942724943,-0.20300752102807162,0.2366044510077685
1761141545089924000,7.079924072265625,-2.094757525810599,-0.3035447015322745,0.3430429645102471
1761141545099984000,7.08998388671875,-1.885114658421278,-0.3876588627628982,0.2960386367511004
1761141545110044000,7.1000439453125,-1.3009750460505485,-0.48258010308146476,0.2655792010795325
1761141545120103000,7.11010302734375,-0.9799731598913669,-0.6727659903287887,0.09360336265303194
1761141545130163000,7.120162841796875,-1.0683066923826932,-0.8398746611103415,-0.24689181707054375
1761141545140222000,7.130221923828125,-1.0381102915614844,-0.9319394890844821,-0.5942390546459704
1761141545150282000,7.140281982421875,-0.7726058362185955,-0.9977331268571317,-0.7670907260589301
1761141545160341000,7.150341064453125,-0.41289340339303016,-1.080096937289089,-0.8415916941612959
1761141545170401000,7.160401123046875,-0.09346972633600234,-1.1376520312875509,-0.909777926158905
1761141545180460000,7.1704599609375,-0.0027010756522417067,-1.1088090909019113,-0.9750224056161939
1761141545190520000,7.18052001953125,0.007698153287172317,-0.9946293156228959,-0.9403103540014475
1761141545200579800,7.190579833984375,0.039539983227849004,-0.9306604090593754,-0.8966727992616593
1761141545210639000,7.20063916015625,-0.05276245289444923,-0.9092842974230646,-0.9970703520994633
1761141545220699100,7.21069921875,-0.09171031544804573,-0.8795886857308447,-1.062536584548652
1761141545230758000,7.2207578125,-0.0041238019317388535,-0.717506026417762,-0.9947653630927205
1761141545240818000,7.23081787109375,0.2570101832419634,-0.5798568204849958,-0.905368146892637
1761141545250877000,7.240876953125,0.5221791230201721,-0.5442383946150541,-0.8992045096963643
1761141545260937000,7.25093701171875,0.4636550378590822,-0.6245837048314511,-1.1332412291079759
1761141545270996000,7.260995849609375,0.11823007358312607,-0.6148778649836778,-1.2989591761834918
1761141545281056000,7.271055908203125,0.15743687933385372,-0.5540586546227335,-1.1800455042503772
1761141545291115000,7.281114990234375,0.5236930347144604,-0.5163530472151935,-0.9975295671090483
1761141545301174800,7.2911748046875,0.8168301778703928,-0.5606539612345397,-0.8336803365148603
1761141545311235000,7.301235107421875,0.9953425784587859,-0.747744366684556,-0.8529024849876761
1761141545321294000,7.311294189453125,1.1562018334567545,-0.8691638839587569,-0.8783804059196263
1761141545331353900,7.321353759765625,1.0099445197850465,-1.0466977949038148,-1.1104616073492914
1761141545341413000,7.3314130859375,0.6354828461170197,-1.1989053952820599,-1.4478057756960392
1761141545351473200,7.34147314453125,0.2025631382614374,-1.148265487499535,-1.5841554433375595
1761141545361532000,7.351531982421875,-0.36911329837739465,-1.000651060130447,-1.5304095323637128
1761141545371592000,7.361592041015625,-0.8881985470354556,-0.8977762304589152,-1.4104190249793231
1761141545381651000,7.37165087890625,-0.9041548255801201,-0.78794179090783,-1.2932102572679518
1761141545391711000,7.3817109375,-0.5186147085368633,-0.774027685715258,-1.038752754183486
1761141545401770200,7.391770263671875,-0.04714928918778896,-0.8400697452910244,-0.8790678036618977
1761141545411830000,7.401830078125,0.16579145070314405,-0.9011040597073733,-0.886294613110274
1761141545421890000,7.41189013671875,-0.014943302109837532,-0.915925781264156,-0.8983394172996282
1761141545431948800,7.42194873046875,-0.22213877634704113,-0.8957247047565877,-0.8126246890045702
1761141545442009000,7.432009033203125,-0.2482686583817005,-0.86874076317586,-0.6178373723763972
1761141545452068000,7.442068115234375,-0.18445406559705732,-0.8725395709369331,-0.5375541676107793
1761141545462127900,7.4521279296875,-0.21216215673387048,-0.9585405688274651,-0.5861508425952866
1761141545472187100,7.462187255859375,-0.38442835640907286,-1.0575558735266328,-0.5522301970865577
1761141545482247200,7.4722470703125,-0.45689036602973937,-1.0521940542325376,-0.38381073596738274
1761141545492306000,7.482305908203125,-0.5441553925067186,-0.9675419867329299,-0.266680074993521
1761141545502365700,7.49236572265625,-0.5548837072700262,-0.9649467826079576,-0.14009864491149782
1761141545512424700,7.5024248046875,-0.5439776978522539,-1.0401995919909328,-0.009870309694483876
1761141545522484500,7.512484375,-0.6137602591305971,-1.0500050928208977,0.23978220426104963
1761141545532544500,7.52254443359375,-0.6627969695001841,-0.9512549418639391,0.5059401550766081
1761141545542603800,7.532603759765625,-0.6731324855536222,-0.8205081357307732,0.6415701301414519
1761141545552663600,7.54266357421875,-0.7114128241091966,-0.7126175237238407,0.6928019394025207
1761141545562722600,7.55272265625,-0.6711515408694744,-0.6078585608061403,0.7393740862894803
1761141545572782600,7.562782470703125,-0.4691980589389801,-0.4672925175786018,0.7325650638617575
1761141545582841600,7.572841552734375,-0.20101415525376795,-0.325348390930891,0.754633176350221
1761141545592901600,7.582901611328125,0.11959142506420611,-0.18169512227773665,0.7537400269027799
1761141545602960600,7.592960693359375,0.3272697143822908,-0.09884630480781197,0.7724565639410167
1761141545613020700,7.603020751953125,0.4513999519199133,-0.055570642182976006,0.8727139045905321
1761141545623079400,7.613079345703125,0.5282593197166919,0.025585107633471486,0.9993727107577025
1761141545633139700,7.6231396484375,0.696926618117094,0.13516411111876367,1.1557972712438553
1761141545643199700,7.63319970703125,0.9071481621772051,0.2746563145697117,1.3420268951460719
1761141545653258500,7.643258544921875,1.0265729985028504,0.41000995691120623,1.5263057503066957
1761141545663318500,7.653318603515625,0.8868342729449271,0.40104105303585524,1.6703538634963333
1761141545673377500,7.66337744140625,0.5647843390375376,0.22618878239020704,1.7323253126323221
1761141545683437600,7.6734375,0.1371031163573265,-0.15335560136958956,1.2260488382734358
1761141545693496800,7.683496826171875,-0.3484796756714582,-0.7414278770141303,0.5414236659878865
1761141545703556600,7.693556640625,-0.7318471248507499,-1.3221528586357831,-0.1572815061090514
1761141545713615600,7.70361572265625,-0.8847796785026788,-1.7854618595361709,-0.8134875163789838
1761141545723675600,7.713675537109375,-0.6995856081932783,-2.072747061793506,-1.281271251540631
1761141545733734700,7.723734619140625,-0.3557511279791593,-2.2717998538464306,-1.299551881379634
1761141545743794700,7.733794677734375,0.10570376948714255,-2.126499256377667,-1.0264289138570428
1761141545753854500,7.7438544921875,0.5978495732933282,-1.6827464582100509,-0.44905039311908185
1761141545763913700,7.753913818359375,0.8142237947642803,-1.5122151195034383,0.5493944987365975
1761141545773973800,7.763973876953125,1.3555828345507384,-0.5653884424105287,0.8844161058872938
1761141545784032500,7.774032470703125,1.8479992719918488,0.41425358583033084,0.9201370422836392
1761141545794092500,7.784092529296875,1.4829834720611572,1.003615609024465,0.6870508285298943
1761141545804151600,7.794151611328125,0.8899310699164867,1.273042206247151,0.37483679059073327
1761141545814211600,7.804211669921875,1.011754784077406,1.3678545793637633,0.24823577902540564
1761141545824270800,7.814270751953125,1.465678116995096,1.589810984881222,0.2875697913523763
1761141545834330600,7.82433056640625,2.0478917297393084,1.794452682982385,0.5120983854454011
1761141545844389600,7.8343896484375,2.6680092489421368,1.7619427445217966,0.6978728129260242
1761141545854449400,7.844449462890625,3.1873388277500867,1.4525997319743036,0.7665088345177471
1761141545864509700,7.854509765625,3.506693531224131,1.1227741956293582,0.8154679496064782
1761141545874568700,7.864568603515625,3.6820500981301065,1.0672992689058185,0.742560388175398
1761141545884628500,7.87462841796875,3.1218045715659857,1.0831956339567899,0.5347151813251897
1761141545894687700,7.884687744140625,1.8622446549654006,0.9751005854189395,0.3382635116813704
1761141545904747800,7.894747802734375,1.117017239537835,1.0135495585396885,0.3215848371462896
1761141545914806500,7.904806640625,0.860748814573884,1.0483426395013928,0.2561553382446058
1761141545924866600,7.914866455078125,1.294155429163575,1.240691257740557,0.31675471357610074
1761141545934925600,7.924925537109375,1.9445383227705955,1.443408125258982,0.44232400747351347
1761141545944985600,7.934985595703125,2.1158745481193066,1.3084177632719278,0.37490364528186615
1761141545955044600,7.945044677734375,1.9415274505168199,1.0548092051669955,0.02310194676493993
1761141545965104600,7.955104736328125,1.7840847259640693,0.862255712005496,-0.4022670146342367
1761141545975163600,7.96516357421875,1.2013175709903239,0.6923527343302964,-0.7488050547186285
1761141545985223400,7.975223388671875,0.24801205327212808,0.5878399281933904,-0.9217788181412965
1761141545995283700,7.98528369140625,-0.3743406776368618,0.6676698362335562,-0.8684682298447937
1761141546005342700,7.9953427734375,-0.33462826045155525,0.9935320219054817,-0.87026775354743
1761141546015402500,8.005402587890625,-0.05754033482074737,1.071869353300333,-0.7790197218488901
1761141546025461800,8.015461669921875,0.18841361687779426,1.0075497336030006,-0.648680765864253
1761141546035521500,8.025521484375,0.13606792809069157,0.7644312975913286,-0.4101379672050476
1761141546045580500,8.03558056640625,-0.1459393337637186,0.34371699131429195,-0.19707078792285174
1761141546055640600,8.045640625,-0.6444494119048119,-0.07243278352618217,-0.22329273215513676
1761141546065699600,8.055699462890624,-1.1899620642393827,-0.44342268943041563,-0.35541265327241267
1761141546075759600,8.065759521484376,-1.5517121403723955,-0.7866822923660278,-0.5152749331222847
1761141546085818600,8.075818603515625,-2.1286533656716347,-1.221539690285921,-0.5853610073918476
1761141546095878700,8.085878662109375,-2.927936196413636,-1.864561991997063,-0.5615146697171032
1761141546105938700,8.095938720703124,-4.181489566075801,-2.5837238227978347,-0.8648165024042129
1761141546115997400,8.10599755859375,-6.30972616764009,-2.753804787388444,-1.3266167061768472
1761141546126057700,8.1160576171875,-8.803260308685898,-2.4789409675478935,-1.3315784202374517
1761141546136116500,8.126116455078124,-10.770549976968764,-2.1535198036417365,-0.8907805263526737
1761141546146176500,8.136176513671876,-11.482647276210784,-2.325020864163339,-0.4014811614861712
1761141546156235800,8.14623583984375,-11.645001738202572,-2.8515666579604146,-0.10237813219577073
1761141546166295600,8.156295654296875,-12.152120070213078,-3.497525889906287,0.0608160685557872
1761141546176354600,8.1663544921875,-13.08047994724512,-4.191392535930872,-0.1461519536010921
1761141546186414600,8.17641455078125,-14.332027822303772,-4.534481458474695,-0.09880710530858486
1761141546196473600,8.1864736328125,-15.667582014304399,-4.145801289840042,0.3072600687935948
1761141546206533600,8.19653369140625,-16.53231200746894,-3.4004774283006785,0.8625257611185312
1761141546216592600,8.206592529296875,-16.681686576378343,-2.808483010776341,1.6004340857043862
1761141546226652700,8.216652587890625,-16.095704551011323,-2.5546941276684403,1.6632487076662479
1761141546236712700,8.226712646484375,-14.042823926943539,-2.310255256707966,1.2011301586594432
1761141546246771500,8.236771484375,-10.716749413198231,-0.928638693973422,0.9328292775310575
1761141546256831700,8.246831787109375,-6.215142927104234,1.5223270559340714,1.158424843268469
1761141546266890500,8.256890380859375,-0.9976946945428847,4.190138736477494,2.360879236268997
1761141546276950500,8.266950439453124,3.0622008744746445,5.706723449367284,3.419016416814923
1761141546287009800,8.277009765625,5.04254700820744,5.766463924580812,3.60449748737216
1761141546297069600,8.287069580078125,5.629428612762689,5.350031825667619,4.176220101240277
1761141546307128600,8.297128662109374,6.513972728943824,4.760609012196958,4.5477620880693195
1761141546317188900,8.30718896484375,8.058834272769094,3.9335976320520043,4.423282890963554
1761141546327247600,8.31724755859375,9.906983182364701,2.841974653750658,3.644943771789968
1761141546337307600,8.3273076171875,11.291764638870953,1.5356909798979759,2.9499557205200193
1761141546347367400,8.337367431640626,11.788709951913356,-0.5851423596724867,2.594394562155008
1761141546357426700,8.3474267578125,11.832499993801116,-1.920389093159139,1.8090812200546265
1761141546367486700,8.35748681640625,10.182619155621529,-1.790602583425492,1.2569359978377819
1761141546377545500,8.36754541015625,6.869304170206188,-1.6569743035718798,1.454189923775196
1761141546387605800,8.377605712890626,4.670636772587895,-1.4001371388092636,2.0434255441106854
1761141546397664500,8.38766455078125,4.403655814951658,-0.5402021248362958,2.3437011608444154
1761141546407724500,8.397724609375,4.873690909236669,0.2713505510225892,2.6777991138115524
1761141546417783800,8.40778369140625,5.727036754077672,0.8272313065059482,2.839249612700939
1761141546427843600,8.417843505859375,7.029016593256593,1.1897305935710667,2.55774387062788
1761141546437902600,8.427902587890625,8.560970724713801,1.3603493183001876,1.6585701944611966
1761141546447962600,8.437962646484374,9.916620779281853,1.0890709557309746,0.315967399123311
1761141546458021600,8.448021728515625,10.420686737984418,0.3384600936993956,-0.861367823255062
1761141546468081700,8.45808154296875,9.843561388289928,-0.451761332578212,-1.242687838385254
1761141546478141400,8.468141357421874,8.488215285104513,-0.7513768779680132,-0.9931912456437945
1761141546488200700,8.47820068359375,6.879916165113449,-0.687483959250152,-0.5185156320765614
1761141546498260700,8.4882607421875,5.581073454916477,-0.33056437201350924,0.049317573137581346
1761141546508319700,8.49831982421875,4.781494856098294,0.03225494078621268,0.6464346674378961
1761141546518380000,8.508380126953124,4.586048271843791,0.3768244572766125,1.1400372459236532
1761141546528438800,8.518438720703125,4.872287472179532,0.7909285516336559,1.4890721443250774
1761141546538498800,8.528498779296875,5.587518393272161,1.1578892020218075,1.5979349623650312
1761141546548558000,8.53855810546875,6.512120379075408,1.325109370353818,1.3965608877576887
1761141546558617900,8.548617919921876,7.615904627552628,1.2514883999563753,1.0879937549535184
1761141546568676900,8.5586767578125,8.738793389472365,1.1673717545077205,0.750167940569669
1761141546578737000,8.56873681640625,9.73311130105853,1.1415338411569596,0.46278797270096833
1761141546588796000,8.5787958984375,10.113252773928641,1.0389420662105082,0.2517825117215514
1761141546598856000,8.58885595703125,9.817796832436322,1.054349478700757,0.21869287367686627
1761141546608915700,8.598915771484375,9.441635369113087,1.2134124979317187,0.47812853050008414
1761141546618975000,8.60897509765625,9.398185518965125,1.355299633695185,0.7528189665351063
1761141546629035000,8.619034912109376,9.773128838670253,1.3929872670546173,0.7927791479364037
1761141546639093800,8.62909375,9.985360553508997,1.3406599907070398,0.5451875120334327
1761141546649154000,8.639154052734375,9.522236846047639,1.104411732725799,-0.031122868016362187
1761141546659212800,8.649212890625,7.950379743269085,0.8083376593351363,-1.0868823596455157
1761141546669272800,8.65927294921875,5.706370398145914,0.6164341545149684,-1.697778315386176
1761141546679332000,8.66933203125,3.570041675540805,0.7334729724869131,-1.9048878649055956
1761141546689391900,8.679391845703124,1.2824398569285869,1.2601795098036528,-1.663834836991131
1761141546699451000,8.689450927734375,-1.9661323149412868,2.147338776919246,-1.429193429684639
1761141546709511000,8.699510986328125,-5.69779780011177,2.7176412948563695,-0.8122279447719454
1761141546719571000,8.709571044921875,-8.373898585572839,2.663346517828107,0.4731029574230313
1761141546729630000,8.7196298828125,-8.908828469094633,2.046390969787538,1.7143227690823375
1761141546739689700,8.729689697265625,-8.415307869803906,0.83965371183604,1.4583696936778723
1761141546749749000,8.7397490234375,-8.503796300596,-0.3449669913753867,-1.031530474779755
1761141546759809000,8.74980908203125,-9.756615510764718,-0.9234630449011921,-3.477234797027707
1761141546769867800,8.75986767578125,-12.642058134841918,-1.1671242094874381,-3.996023108565807
1761141546779928000,8.769927978515625,-14.7063533023715,-2.339301026189327,-2.745775210189819
1761141546789986800,8.77998681640625,-13.613912285685538,-3.1019086154848337,-2.157931774865091
1761141546800046800,8.790046875,-10.20827732849121,-3.7277152862399814,-1.0564509810246527
1761141546810105900,8.80010595703125,-6.530391364303231,-5.406461568897962,1.1021318050950766
1761141546820166000,8.810165771484375,-5.197661582073569,-6.023979719257355,2.3389359922692177
1761141546830225000,8.820224853515626,-7.535965413919091,-3.7088524725988505,1.8816954976275562
1761141546840285000,8.830284912109375,-10.768624561864137,0.06532412056475877,0.44793914394155143
1761141546850345000,8.840344970703125,-13.529735288351773,2.7740467804282902,-0.4636573759466409
1761141546860404000,8.850404052734374,-15.196238760030269,4.017508964186907,-0.8254014607302844
1761141546870463700,8.860463623046876,-14.368780220639705,3.889206993922591,-1.4082058789744973
1761141546880523000,8.87052294921875,-11.451671123188733,2.897072856116295,-2.280439964158833
1761141546890582800,8.880582763671875,-7.835100920706987,1.2946344448521732,-3.3534815761089325
1761141546900641800,8.890641845703126,-3.980674732786417,-0.3149146751999855,-4.531306043308973
1761141546910702000,8.9007021484375,-0.3624538404881954,-1.6285450585536658,-5.49829872559607
1761141546920760800,8.9107607421875,2.543420746243,-2.3200255400940772,-5.5396799527764315
1761141546930820900,8.92082080078125,4.348085318899154,-2.188030268269777,-4.651821305219829
1761141546940880000,8.9308798828125,4.974429165270925,-1.7209002477765083,-3.3411624850228425
1761141546950940000,8.94093994140625,5.025010182473063,-1.261150692923367,-2.077032045636326
1761141546960999000,8.9509990234375,4.709170793643594,-0.8168634956181049,-1.2162541510984302
1761141546971059000,8.961058837890626,3.996601200714707,-0.6464096060618758,-1.1573485192738473
1761141546981118000,8.971117919921875,2.779628964474797,-1.034626102707535,-2.2154355770677325
1761141546991177700,8.981177734375,1.2191694540232418,-1.6286036568731068,-3.237592512694001
1761141547001237800,8.99123779296875,0.15788871475458144,-2.0825985937222837,-3.677243282370269
1761141547011297000,9.001297119140625,0.2806687067270279,-2.182475702882558,-3.576587151661515
1761141547021356800,9.011356689453125,1.7911866669237613,-2.0092551250919697,-3.088405283050239
1761141547031416000,9.021416015625,3.7219577456265687,-1.7512572459869085,-2.2962829915873706
1761141547041476000,9.03147607421875,4.776370937213302,-1.4704523456595837,-1.3263899116836488
1761141547051534800,9.041534912109375,5.327665680080652,-1.1759029976181685,-0.44328941843956704
1761141547061595000,9.051594970703125,5.625708715456724,-0.9789354874067008,0.2564484577059746
1761141547071654000,9.06165380859375,5.669893894141912,-0.8384839374043047,0.9101958593100309
1761141547081714000,9.0717138671875,5.252328407284617,-0.9871240545593202,1.5324091817483305
1761141547091773000,9.08177294921875,4.125031765794754,-1.3308246792607008,1.9231144264698028
1761141547101833000,9.0918330078125,2.9095927304714917,-1.6768544775620102,2.1314657927438616
1761141547111892000,9.10189208984375,2.701583017241955,-2.1763211257755755,2.555005677835643
1761141547121951700,9.11195166015625,3.3561405661851165,-2.7005858228981494,2.9695246366038917
1761141547132011800,9.12201171875,3.8735219335347413,-3.2453906192243096,3.2135350530192253
1761141547142071000,9.132071044921876,3.2693799820989367,-3.6341949987605213,3.560009526348114
1761141547152130800,9.142130859375,2.4661510440796612,-3.785250944885611,3.6742899855226274
1761141547162190000,9.152190185546875,2.6174510280936953,-3.7196845399975773,3.0721342394679785
1761141547172250000,9.16225,2.49783972928524,-3.501614036002755,1.986746063902974
1761141547182308900,9.172308837890625,0.5581283882796764,-2.854180347590148,1.0299981506459415
1761141547192369000,9.182368896484375,-2.4824638809770345,-1.414643364676088,0.13586663336493074
1761141547202428000,9.192427978515624,-5.842206855568289,0.7473537599317729,-0.1905222795948386
1761141547212488000,9.202488037109376,-9.054003248226643,2.718763284623623,0.20107596844360232
1761141547222546700,9.212546630859375,-11.012252116441726,3.8813650482505557,0.959980173176527
1761141547232607000,9.22260693359375,-11.023199042391777,4.294407504725456,1.8113588095977902
1761141547242666000,9.232666015625,-9.474536937239765,4.063687654776871,2.3472598762392995
1761141547252725800,9.242725830078125,-6.95483024406135,3.43402664668113,2.152772200144827
1761141547262785800,9.252785888671875,-4.314320996463299,2.5917685975655913,1.7442869685828686
1761141547272845000,9.262844970703124,-2.050437907090783,1.9161914953388273,1.519433672580123
1761141547282904800,9.27290478515625,-0.22242110041975974,1.4133197148568928,1.1958281797938048
1761141547292964000,9.282964111328125,1.1402139907300473,0.9766690037794411,0.936055326905474
1761141547303023900,9.29302392578125,2.165609762147069,0.6752183519169688,1.0338905549746007
1761141547313083000,9.303082763671876,3.317791254046559,0.44231326688379047,1.396287185382843
1761141547323143000,9.313142822265625,4.361715784844756,0.18276289763972162,1.4643272869080304
1761141547333202000,9.323201904296875,4.469409266844392,-0.11891484097689389,0.7210151305172592
1761141547343262000,9.333261962890624,4.207814093899727,-0.5167027374356985,0.061213031984120606
1761141547353321000,9.343321044921876,4.237659781587124,-0.8196753381684422,-0.09017484950907528
1761141547363381000,9.353381103515625,4.4507793851763005,-0.9613479543983936,-0.11999518355950713
1761141547373440000,9.36343994140625,4.571937328904867,-0.8808682041473687,-0.19686587646789847
1761141547383499800,9.373499755859376,4.428262432941795,-0.6623141544193029,-0.35795915941745043
1761141547393559000,9.38355908203125,4.123121548259258,-0.43487858683839437,-0.33750469267070293
1761141547403618800,9.393618896484375,3.748260646140575,-0.27027751496359703,-0.13195647418387232
1761141547413678800,9.403678955078124,3.3540444706887005,-0.10357084911167622,-0.0470969014134258
1761141547423738000,9.413738037109376,2.8170272594988344,0.027870003700256347,-0.028279022892564534
1761141547433798000,9.4237978515625,2.004983731383085,0.12639160659834742,0.01003762908540666
1761141547443857000,9.43385693359375,1.3325497494876384,0.1811817659281194,0.13109949202835558
1761141547453917000,9.4439169921875,1.1515402713865042,0.19107056112736462,0.34233868869841094
1761141547463976000,9.453975830078125,1.7174696888059378,0.1987305743612349,0.5870131219804287
1761141547474036000,9.464035888671875,2.940971034553647,0.1145253738462925,0.7668323673836887
1761141547484095000,9.474094970703124,4.248562283873558,-0.16448526347540318,0.7164264144875109
1761141547494155000,9.484155029296875,4.91071101859808,-0.36532961512021717,0.5183651176899671
1761141547504214300,9.49421435546875,5.107594942179322,-0.4817505934547633,0.5313315667688846
1761141547514274300,9.5042744140625,6.59559361205399,-0.6499032933965325,0.19586101027429104
1761141547524333600,9.51433349609375,7.867391078937053,-0.31650347876138984,0.42719124720618123
1761141547534393300,9.524393310546875,8.085997589504718,-0.2335281853675842,0.35191344951242204
1761141547544453400,9.534453369140625,7.801092268121242,0.023726839480921625,-0.3630918461307883
1761141547554512400,9.544512451171874,7.325055887594819,0.6790069305449724,-0.8056844414126128
1761141547564572400,9.554572509765626,6.316021468392014,1.4962155863389373,-0.44023653367497023
1761141547574631400,9.56463134765625,4.90263409512639,2.0722529946662482,0.7186047814399004
1761141547584691200,9.574691162109374,3.7153076400876044,2.384928512637317,1.566394453458488
1761141547594750500,9.58475048828125,2.0036007525920865,1.9310352825969457,0.8501858464401215
1761141547604810500,9.594810546875,-1.579128555086255,0.5120338688418269,-1.9080834460765121
1761141547614869200,9.604869140625,-6.5111459810853,-1.1818138290971516,-4.876447514468431
1761141547624929500,9.614929443359374,-11.12709196306467,-1.7573051478490231,-7.73602562944889
1761141547634988300,9.62498828125,-13.230381754899025,-1.1404065906926988,-9.111344261083007
1761141547645048300,9.63504833984375,-11.809972520172595,-0.7000266299590469,-7.600560343426466
1761141547655107300,9.645107421875,-9.69590356017053,0.7444074773468077,-5.28574260110855
1761141547665167400,9.65516748046875,-9.034531655037403,2.1449526124350724,-3.617982699628174
1761141547675226400,9.665226318359375,-9.106982558742166,2.3446172527760267,-3.3644951375544068
1761141547685286400,9.675286376953125,-10.250305621403456,2.017876092312485,-4.603735319703817
1761141547695345400,9.685345458984376,-12.393980030596255,1.8810617297686636,-6.535998098269104
1761141547705405400,9.695405517578125,-14.226537987828253,2.0007997236967086,-8.001756294763087
1761141547715465200,9.70546533203125,-15.423624789381027,2.541906250026822,-7.798622078615427
1761141547725524500,9.7155244140625,-16.543744086587427,3.283266176371276,-6.440661993539333
1761141547735584300,9.725584228515626,-17.500304806709288,4.056514402146637,-5.469012425357103
1761141547745643300,9.735643310546875,-19.160878888338804,4.864811437210441,-5.135570744341612
1761141547755703600,9.74570361328125,-22.14597255773544,5.477143709364533,-4.828119829151034
1761141547765762300,9.75576220703125,-25.800569416272637,6.422348338213562,-4.8388460980877275
1761141547775822300,9.765822265625,-27.995996224534508,7.507180633461475,-4.454266642770171
1761141547785881300,9.77588134765625,-27.54959218120575,7.238682256999612,-3.829543091076612
1761141547795941400,9.78594140625,-24.207480724895,6.022676235443353,-3.895102189441025
1761141547806000400,9.79600048828125,-18.868553646087644,5.142577992755174,-4.047092786067724
1761141547816060400,9.806060302734375,-12.366565953969955,3.641251054751873,-3.781719263628125
1761141547826119400,9.816119384765624,-4.746399577319622,2.549614340186119,-1.6646968606479464
1761141547836179200,9.82617919921875,2.8136884704649447,1.0402670312039553,1.6347008047044276
1761141547846239200,9.8362392578125,8.005752086400985,-1.486389188851416,4.907646954852343
1761141547856298500,9.846298583984375,13.32282038462162,-1.4222364501535891,6.873919555047154
1761141547866358300,9.856358154296874,16.30548711913228,-0.4638811016999185,4.696333523902297
1761141547876417300,9.866417236328125,14.727718746483324,-1.0084018203876912,0.5346059122644364
1761141547886477600,9.8764775390625,10.767134031045437,-1.6485883141510187,-1.8359889545939863
1761141547896536300,9.886536376953124,6.889992737969756,-0.8403330724023282,0.10198489509448408
1761141547906596400,9.896596435546876,5.083023980024457,-0.14300850447621197,3.903362652786076
1761141547916655400,9.9066552734375,6.51034518609643,-0.3777218445077538,5.812751628503203
1761141547926715400,9.91671533203125,7.975787740769982,-2.1386334924161434,5.874860001891851
1761141547936774100,9.926774169921876,9.0787559966892,-3.621328795185685,5.501382078564166
1761141547946834400,9.93683447265625,9.56082055146396,-4.4744981144160025,5.012161222293972
1761141547956893400,9.9468935546875,9.304296105912327,-4.7555736483782525,5.08251310789287
1761141547966953200,9.956953125,7.72670016722083,-4.093053449992835,6.0071454888343805
1761141547977012500,9.967012451171875,6.871858530864119,-3.1196245971783996,6.79498104288876
1761141547987072500,9.977072509765625,7.019916756477952,-1.7256785680942237,6.950700596910715
1761141547997132300,9.98713232421875,7.107040328657627,-0.5035776637289673,6.6861483277261256
1761141548007191300,9.99719140625,7.584130017629265,0.30876722195353357,5.855656119728088
1761141548017251600,10.00725146484375,8.150477368199825,0.742703157646954,4.4489048234760755
1761141548027310300,10.017310302734375,7.8996894204735755,0.5763836644817143,3.8101302423372863
1761141548037370400,10.027370361328124,7.385026079910993,0.7581325627733021,3.9390114737942814
1761141548047429400,10.037429443359375,7.3165066704362625,1.522563202777505,4.1427708361029625
1761141548057489400,10.047489501953125,7.65405870938003,1.6922807408832012,4.311784171462059
1761141548067548200,10.057548095703124,8.186293362468481,1.6303034465283155,3.8554008781716225
1761141548077608400,10.0676083984375,8.429353930813074,1.7704989759430287,2.570709150663018
1761141548087667500,10.07766748046875,8.113007176983356,1.407695299103856,0.9484805087145417
1761141548097727200,10.087727294921875,7.31030197057724,1.2682574561886488,0.2838484327416867
1761141548107786500,10.097786376953126,6.736117935031652,1.6265677671313286,-0.2270980061896145
1761141548117846500,10.107846435546875,6.637399202126264,2.185042484630644,-0.31215514735877514
1761141548127905300,10.1179052734375,6.306055954694748,2.2983673966459928,0.35045506739765403
1761141548137965600,10.127965576171874,5.872324930456281,1.90723428190127,0.8597159643948078
1761141548148024300,10.1380244140625,5.89783872641921,1.2986720298051833,1.0524274245969951
1761141548158084400,10.14808447265625,6.432935198679566,0.9537312688495964,0.7121689031735062
1761141548168144400,10.158144287109375,7.234426937642693,1.0402806213378906,0.32563349148258564
1761141548178203400,10.168203369140626,7.820726358395815,1.5524631048701703,-0.753492262686789
1761141548188263400,10.178263427734375,8.230303769108653,1.0086169244430958,-2.8932930453166366
1761141548198322200,10.188322265625,8.92629398315847,-1.1992810967266558,-4.028261244347691
1761141548208382500,10.198382568359374,9.652488781335949,-2.863058358311653,-3.529661734357476
1761141548218441500,10.20844140625,11.101570568317173,-3.130138100147247,-1.204347732466459
1761141548228501200,10.218501220703125,12.427732662594318,-2.5366242179706693,1.3416295663915574
1761141548238560500,10.228560546875,12.416900302934646,-1.8642440120890735,3.2848955311387775
1761141548248620300,10.238620361328126,11.023705238348246,-1.1777575394436717,4.267040774372219
1761141548258679300,10.24867919921875,9.083792237290739,-0.6907710180968045,3.937357861368358
1761141548268739600,10.258739501953125,7.859784695586562,-0.4456380273923278,3.1769094959333537
1761141548278798300,10.26879833984375,7.920397277459502,-0.3295774068027735,2.94625248208791
1761141548288858400,10.2788583984375,9.381797278743981,0.37003216678798195,2.8818846393346784
1761141548298917400,10.28891748046875,10.556647698569297,1.174677693606913,3.292352861407399
1761141548308977400,10.298977294921874,10.658590654218196,1.9412457109659909,3.4483705215930938
1761141548319036400,10.309036376953125,9.315747474253177,2.1176839356288313,3.8014831177622077
1761141548329096200,10.31909619140625,6.3557683723688125,1.531634397983551,4.020405270150303
1761141548339156500,10.329156494140625,2.723660409015417,0.35835692656338214,3.7989272957995532
1761141548349215200,10.33921533203125,-0.9019768970191478,-2.7004063746780154,3.4974151230081914
1761141548359275300,10.349275146484375,-5.372518382763863,-6.078792674940824,2.940442919026315
1761141548369334500,10.35933447265625,-6.865028392583131,-8.535569741475582,2.7169559429407117
1761141548379394300,10.369394287109374,-7.956753954476118,-12.47189329136014,3.9674189453721045
1761141548389453300,10.379453369140625,-6.7543415739864106,-16.90477286270857,3.911020181801915
1761141548399513600,10.389513671875,-2.0016127936452626,-16.960277892309428,1.5184066676199435
1761141548409572400,10.399572265625,-1.0710481000453234,-12.624312050271033,-3.2735283339500425
1761141548419632400,10.40963232421875,-10.079207880985736,-7.441848621851205,-8.802674033230543
1761141548429691400,10.41969140625,-24.423718752765655,-1.2645242610096932,-13.575309291046857
1761141548439751400,10.42975146484375,-35.92218552939892,3.0667177673771975,-14.740461323678492
1761141548449810200,10.43981005859375,-37.773506639289856,4.860096683648228,-12.254438288915157
1761141548459870500,10.449870361328125,-32.140141856122014,4.876388477757573,-9.107550129497051
1761141548469929500,10.459929443359375,-24.32265959421396,3.4000954432457684,-8.128027635982631
1761141548479989200,10.4699892578125,-18.419912052965163,1.6939536425314843,-8.346895427834987
1761141548490049300,10.48004931640625,-14.101695802628994,0.8181462289050221,-8.34778331658542
1761141548500108500,10.490108642578125,-10.884950263130664,0.6317544732436537,-7.523181920191645
1761141548510168000,10.50016796875,-7.660247627148031,0.8836977284848689,-6.088935298770666
1761141548520227000,10.51022705078125,-5.253948701962829,1.4621994810990988,-4.9411868208825585
1761141548530287400,10.520287353515625,-3.4852269648253915,2.0013440597064793,-3.8089082993268963
1761141548540346000,10.53034619140625,-1.7855688270419836,1.5098112732321023,-2.2751013796098527
1761141548550406100,10.54040625,-0.3183206842511892,1.100508295546472,-1.3634306254416704
1761141548560465200,10.550465087890625,3.041221799331903,2.3354636399835345,-1.3004282258227466
1761141548570525200,10.560525146484375,4.511526991605758,1.914370855782926,0.6172980778679251
1761141548580584000,10.570583984375,5.410611674314737,1.9568676429897545,1.8089844816818832
1761141548590644200,10.580644287109376,5.782313235619664,2.507797351936996,1.631910297203064
1761141548600703200,10.590703125,5.790286698716878,2.503968441298604,1.5276077728159725
1761141548610763000,10.600762939453125,6.348008259761333,2.1335788393750788,1.516113880507648
1761141548620822300,10.610822265625,7.202768647575378,1.8611460460737346,0.6580720598701387
1761141548630882300,10.62088232421875,7.115282087302208,1.6741642155647276,0.11037987153939902
1761141548640942000,10.630942138671875,6.875341696804761,1.6266981155127287,0.07871595544889569
1761141548651001000,10.6410009765625,6.968981519010662,1.680601847396791,0.0697623222079128
1761141548661061000,10.65106103515625,6.888584040215611,1.704128561195731,-0.23650369404703378
1761141548671120100,10.6611201171875,6.099412853643297,1.8374866458058356,0.1445688491281122
1761141548681180200,10.67118017578125,5.402361147841811,1.8182897779047489,0.8865580863520502
1761141548691239200,10.6812392578125,4.875179686489701,1.8593764060527085,1.3410573194615543
1761141548701299200,10.69129931640625,4.102967818024754,1.680614706878364,1.2104599317364393
1761141548711358000,10.70135791015625,2.7483324934571978,1.4094021030217407,0.7470770618822425
1761141548721418200,10.711418212890624,1.594167718786001,0.7948135763734578,0.7558807652585208
1761141548731477200,10.721477294921876,1.3819459408193826,-0.03487432950437069,0.9060001611858606
1761141548741537000,10.731537109375,1.9087825342565774,-0.7783025865554809,0.941721755169332
1761141548751596300,10.74159619140625,2.5866858874738217,-1.342424077770114,0.5694529153704643
1761141548761656000,10.751656005859376,2.1986399250894784,-1.6140876402646303,0.23996413669921457
1761141548771715000,10.761715087890625,1.2945464743077755,-1.3587567884117364,0.2643558880959637
1761141548781775400,10.771775390625,1.0740215628981589,-0.7998565389767288,0.1355162033589091
1761141548791834000,10.781834228515624,0.9608294834822416,-0.33006548258066176,-0.32533268190510567
1761141548801894100,10.79189404296875,0.029974867025017737,0.0811713857769966,-0.04485213642762974
1761141548811953200,10.801953125,-0.8139742039173841,0.11732348013222217,-0.03793313255310058
1761141548822013200,10.81201318359375,-1.0307710347145795,0.20428513974845408,-0.15596238633450119
1761141548832073200,10.8220732421875,-0.6857938142061233,0.023956921909749507,-0.2980289703181013
1761141548842132000,10.832132080078125,0.0688894118309021,-0.35279505465254185,-0.9349098101321607
1761141548852192300,10.842192138671875,1.713266976419091,-0.4089790064282715,-1.007357864292711
1761141548862251300,10.852251220703126,2.9596336494475604,-0.11299275745153427,-0.7135743129920215
1761141548872311000,10.86231103515625,2.8841660282701254,0.21120470987856388,-0.01948657156266272
1761141548882370300,10.872370361328125,0.30439854188263415,0.6998515656530857,0.09149287330508231
1761141548892430000,10.88243017578125,-2.721514044636488,0.15897417190372942,-0.05872713345251977
1761141548902489000,10.892489013671875,-2.1336960360139607,-1.0204862259350715,0.6547470801658928
1761141548912549400,10.90254931640625,-1.7013690333545206,-0.3550703061081469,1.5787895323902368
1761141548922608000,10.912608154296874,-2.310507477903366,0.10965820620134473,1.384145788951218
1761141548932668200,10.922668212890626,-1.9869377870827911,0.42278205246180295,0.5792088779702782
1761141548942727200,10.93272705078125,-1.39021283390522,0.7065320663303136,0.15842687675189226
1761141548952787200,10.942787109375,-0.8103361396759748,1.0325219700351358,-0.4834673707773909
1761141548962846200,10.95284619140625,-0.8485264618605375,1.318994102343917,-0.8751553794585167
1761141548972906200,10.96290625,-1.1006757610678672,1.7734318145245314,-0.8619175660923123
1761141548982966300,10.97296630859375,-1.3638146563231943,2.346294099947065,-0.6129089029982686
1761141548993025000,10.98302490234375,-2.1065321347564456,2.623109784507751,-0.6815018891658634
1761141549003085000,10.9930849609375,-2.217188558214903,2.768892466405034,-0.8039441005513072
1761141549013144300,11.003144287109375,-1.4956184972286224,2.846411174893379,-0.8714224765405059
1761141549023204000,11.0132041015625,-0.9221890794426202,1.638843895858526,-0.7382021929658948
1761141549033263000,11.02326318359375,-0.38409459441006183,-0.1864879095122218,-0.10077489825021475
1761141549043323400,11.033323486328126,0.17215806312561033,-1.216822890897095,0.22655542374551296
1761141549053382100,11.043382080078125,0.6641694268971681,-1.2969525125361978,-0.23923951221909373
1761141549063442200,11.053442138671874,0.9963479561090469,-0.8730468628719449,-0.6524151300869881
1761141549073501200,11.063501220703126,1.2647592388093472,-0.5290953321494162,-0.69342555119358
1761141549083561200,11.073561279296875,1.3104945695459842,-0.5535520202748477,-0.6093769660124555
1761141549093620000,11.083619873046874,1.0477759455293416,-0.5940396596163511,-0.5849748210858553
1761141549103680300,11.09368017578125,0.5354144521683454,-0.5467562226548791,-0.5294291306810454
1761141549113739300,11.1037392578125,0.08294131805896758,-0.5743142377965152,-0.4382806503668427
1761141549123799000,11.113799072265625,-0.18308394628763197,-0.5852728541843593,-0.4835815717415884
1761141549133858300,11.1238583984375,-0.4547475087821483,-0.49935208192318675,-0.4856916226981207
1761141549143918300,11.13391845703125,-0.40204526164233684,-0.29507015704512596,-0.4247753451708704
1761141549153978000,11.14397802734375,-0.14331366143524646,-0.16381342862844467,-0.11840415150839835
1761141549164037000,11.154037109375,0.11718904009759426,-0.26086159797310826,0.26389011548142877
1761141549174097200,11.16409716796875,0.31360008547008034,-0.1508269596748054,0.3581926393797621
1761141549184156200,11.17415625,0.3130529729813337,0.05977145487368107,0.3055405515246093
1761141549194216200,11.18421630859375,-0.12684417267143724,-0.15161328774690627,0.10964607737213372
1761141549204275200,11.194275146484374,-0.5145575421005487,-0.24573724020794033,-0.21334953988753258
1761141549214335200,11.204335205078126,-0.813989401486516,0.014676613997668028,-0.3150469598101452
1761141549224394000,11.21439404296875,-1.091187217232585,0.3198571000382304,-0.26274156650081276
1761141549234454300,11.224454345703125,-0.8702163156211375,0.5059025264799595,-0.2094813932172954
1761141549244513300,11.23451318359375,-0.16017536438703536,0.4113848985262215,-0.015480477726459503
1761141549254573000,11.244572998046875,0.6609399434566497,0.21883958867117762,0.12604147798642515
1761141549264632300,11.25463232421875,1.1925035654157399,0.03337766120582819,0.118112219357118
1761141549274692000,11.264692138671874,1.1513210756778716,-0.20710998791083693,0.05535509973615407
1761141549284751000,11.274751220703125,0.4773199905961752,-0.19977672241330147,0.1520988062415272
1761141549294811100,11.28481103515625,-0.1498041924983263,0.022982962311059237,0.18471395864225923
1761141549304870100,11.2948701171875,-0.5549900902539492,0.21504911034703253,0.16036822007801382
1761141549314930200,11.30493017578125,-0.6935065805405378,0.20820392062738535,0.13796013504546134
1761141549324990200,11.314990234375,-0.3018132015645504,0.18754764769822357,0.0006498422108590602
1761141549335049200,11.32504931640625,0.3559738308191299,-0.02036912655085325,-0.09264737710244952
1761141549345109200,11.335109130859376,0.9216098182499408,-0.3045700990572572,-0.14715842722989617
1761141549355168000,11.34516796875,1.2875614377260207,-0.489267618021369,-0.2587156719855964
1761141549365228300,11.355228271484375,1.615904918819666,-0.6148366561904549,-0.44302258419692514
1761141549375287000,11.365287109375,1.8275760771661995,-0.7857204615965485,-0.6675706867080181
1761141549385347000,11.37534716796875,1.5994108801364897,-0.917378610420972,-0.722531672560051
1761141549395406300,11.38540625,1.1671183642685412,-0.8086829656414687,-0.8099060776956379
1761141549405466000,11.395466064453124,0.6535387272894382,-0.5697599354930222,-0.9735004567459226
1761141549415525000,11.405525146484376,0.22706980300843715,-0.142231857547909,-0.9918396118391305
1761141549425585200,11.415585205078125,0.18567454730272293,0.21629005031883716,-0.48402737928032874
1761141549435644200,11.42564404296875,0.6270797594308852,-0.02705254983752966,0.940987011153996
1761141549445704200,11.4357041015625,0.8666998319327831,-0.19259557873755692,1.746691983897984
1761141549455763200,11.44576318359375,1.2265163096547127,0.2496080902919173,1.1446055036872624
1761141549465823200,11.4558232421875,1.7033844648301601,0.246126677916944,0.010765724164247512
1761141549475882000,11.465882080078124,1.867622840872407,-0.21868527489230036,-0.4890959147162735
1761141549485942000,11.47594189453125,1.7016957810908555,-0.539666410524398,-0.6580077624622732
1761141549496001300,11.486001220703125,1.2907096726238727,-0.609799246545136,-0.7916158763106912
1761141549506061000,11.49606103515625,0.7521130832880735,-0.47144642238765955,-0.5670278801806271
1761141549516120300,11.506120361328126,0.3875105403333902,-0.27709406311064955,-0.06397701680473983
