time,seconds_elapsed,z,y,x
1761141538078406100,0.06840625,0.18120314180850983,0.12455316632986069,-0.004154353868216276
1761141538088465000,0.07846484375,0.15053267776966095,0.09074131399393082,-0.0658806711435318
1761141538098525000,0.08852490234375,0.11085876822471619,0.0619775764644146,-0.11062896251678467
1761141538108584000,0.098583984375,0.060625430196523666,0.026363909244537354,-0.14271754026412964
1761141538118644000,0.10864404296875,0.013363111764192581,-0.027056436985731125,-0.15632310509681702
1761141538128703200,0.118703125,-0.036134667694568634,-0.08381931483745575,-0.15707837045192719
1761141538138763000,0.128762939453125,-0.0753566324710846,-0.13795313239097595,-0.15756572782993317
1761141538148823000,0.138822998046875,-0.09350686520338058,-0.1457892209291458,-0.14445467293262482
1761141538158882000,0.148882080078125,-0.08221399784088135,-0.10843225568532944,-0.11930112540721893
1761141538168942000,0.158942138671875,-0.058153629302978516,-0.07745681703090668,-0.09691748023033142
1761141538179001000,0.1690009765625,-0.03580757603049278,-0.0626126229763031,-0.08378197252750397
1761141538189060900,0.179060791015625,-0.016407780349254608,-0.02215014584362507,-0.07707666605710983
1761141538199121000,0.189120849609375,0.0027683107182383537,0.01570003107190132,-0.07243957370519638
1761141538209180200,0.19918017578125,0.006781728006899357,0.019981032237410545,-0.06881321966648102
1761141538219240000,0.209239990234375,-0.01477229967713356,-0.006709967274218798,-0.076400026679039
1761141538229299000,0.219298828125,-0.0381736159324646,-0.021635279059410095,-0.07623273134231567
1761141538239359200,0.229359130859375,-0.062453124672174454,-0.04896437004208565,-0.08115877956151962
1761141538249419000,0.2394189453125,-0.10078460723161697,-0.10122989118099213,-0.0879158303141594
1761141538259478000,0.24947802734375,-0.13846780359745026,-0.13106341660022736,-0.09981882572174072
1761141538269538000,0.2595380859375,-0.15646159648895264,-0.10446576029062271,-0.10654474049806595
1761141538279597000,0.26959716796875,-0.16338607668876648,-0.06236358359456062,-0.09954142570495605
1761141538289657000,0.279656982421875,-0.14523808658123016,-0.014670759439468384,-0.07673081755638123
1761141538299716000,0.289716064453125,-0.10249648243188858,0.02783089503645897,-0.046101272106170654
1761141538309776100,0.299776123046875,-0.05028054490685463,0.04287121817469597,-0.003769849892705679
1761141538319836200,0.309836181640625,-0.0032025151886045933,0.028940223157405853,0.03513014316558838
1761141538329895000,0.31989501953125,0.01609879732131958,-0.008884438313543797,0.06070563197135925
1761141538339955200,0.329955078125,0.013061728328466415,-0.03601805493235588,0.054756660014390945
1761141538350015000,0.340014892578125,-0.002919811522588134,-0.050025574862957,0.03308850899338722
1761141538360074000,0.350073974609375,-0.024561723694205284,-0.04094899073243141,-0.0027965207118541002
1761141538370134000,0.360134033203125,-0.04563966765999794,-0.018953317776322365,-0.029054082930088043
1761141538380193000,0.370193115234375,-0.04834197834134102,-0.0009301085956394672,-0.03661772608757019
1761141538390253000,0.380253173828125,-0.03984377160668373,-0.007605652324855328,-0.028933512046933174
1761141538400312000,0.39031201171875,-0.02588668093085289,-0.025688515976071358,-0.01227144617587328
1761141538410372000,0.4003720703125,-0.0061843181028962135,-0.04607103392481804,0.014899276196956635
1761141538420432100,0.41043212890625,0.017300235107541084,-0.044240377843379974,0.046673186123371124
1761141538430491000,0.420490966796875,0.035500992089509964,-0.03379804641008377,0.0743548572063446
1761141538440551200,0.43055126953125,0.03818146139383316,-0.012398745864629745,0.08438751846551895
1761141538450610000,0.44060986328125,0.04297834634780884,0.018006032332777977,0.07794266939163208
1761141538460670000,0.450669921875,0.039109040051698685,0.041404031217098236,0.059517595916986465
1761141538470730000,0.46072998046875,0.037332016974687576,0.06180214881896973,0.03768490254878998
1761141538480789000,0.4707890625,0.036253705620765686,0.07652436941862106,0.026825863867998123
1761141538490849000,0.48084912109375,0.02243112400174141,0.07136445492506027,0.027777941897511482
1761141538500907500,0.490907470703125,0.012862651608884335,0.04043876752257347,0.03430561721324921
1761141538510967300,0.50096728515625,0.003259112359955907,0.00428068358451128,0.03924872353672981
1761141538521027300,0.51102734375,0.005302822217345238,-0.02421833574771881,0.047801729291677475
1761141538531086300,0.52108642578125,0.012172569520771503,-0.038075417280197144,0.05406687408685684
1761141538541146400,0.531146484375,0.015275152400135994,-0.022671161219477654,0.05782778933644295
1761141538551205400,0.541205322265625,0.032495204359292984,0.02950330823659897,0.05897383391857147
1761141538561265400,0.551265380859375,0.051207639276981354,0.07201268523931503,0.06216270104050636
1761141538571325200,0.5613251953125,0.05339469760656357,0.07499775290489197,0.05125516653060913
1761141538581384400,0.571384521484375,0.04018542170524597,0.07504915446043015,0.027337582781910896
1761141538591444200,0.5814443359375,0.023531213402748108,0.07784879952669144,0.0022536362521350384
1761141538601503500,0.59150341796875,0.011290526948869228,0.07370039075613022,-0.02612127922475338
1761141538611563500,0.6015634765625,-0.0057314191944897175,0.08084467053413391,-0.04872940480709076
1761141538621623300,0.611623291015625,-0.012162420898675919,0.0763910710811615,-0.06238289549946785
1761141538631682300,0.621682373046875,-0.012527929618954659,0.05365072190761566,-0.0796319842338562
1761141538641742600,0.63174267578125,-0.004623934626579285,0.02627475932240486,-0.08743717521429062
1761141538651801300,0.64180126953125,0.007173583842813969,0.014649549499154091,-0.0911945179104805
1761141538661861400,0.651861328125,0.016150834038853645,0.03449569270014763,-0.0826183408498764
1761141538671920400,0.66192041015625,0.02808128111064434,0.03972452133893967,-0.07917418330907822
1761141538681980400,0.67198046875,0.04338114336133003,0.03107564151287079,-0.08441049605607986
1761141538692040400,0.68204052734375,0.052523914724588394,0.01333058625459671,-0.09829734265804291
1761141538702099200,0.69209912109375,0.05022986978292465,0.0016664732247591019,-0.11854322254657745
1761141538712159500,0.702159423828125,0.03078637830913067,-0.009187484160065651,-0.13893599808216095
1761141538722218200,0.71221826171875,0.017401596531271935,0.004404757171869278,-0.16480913758277893
1761141538732278300,0.7222783203125,0.007747333962470293,0.067506805062294,-0.17349639534950256
1761141538742338300,0.73233837890625,-0.01208283007144928,0.1295832246541977,-0.17663253843784332
1761141538752397300,0.742397216796875,-0.03157549723982811,0.13221487402915955,-0.18815463781356812
1761141538762457300,0.752457275390625,-0.07013434171676636,0.07835004478693008,-0.19535742700099945
1761141538772516600,0.7625166015625,-0.12790097296237946,0.001909598708152771,-0.18024052679538727
1761141538782576400,0.772576416015625,-0.23097488284111023,-0.08669590204954147,-0.13659131526947021
1761141538792635400,0.782635498046875,-0.264251172542572,-0.14032119512557983,-0.09391412138938904
1761141538802695200,0.792695068359375,-0.350288063287735,-0.11652959138154984,-0.07825925946235657
1761141538812755500,0.80275537109375,-0.4170713424682617,-0.052793752402067184,-0.14646893739700317
1761141538822814500,0.812814453125,-0.36483821272850037,0.10084529221057892,-0.3478880524635315
1761141538832874200,0.822874267578125,-0.15167701244354248,0.4122416079044342,-0.4820217192173004
1761141538842933500,0.83293359375,0.0780981257557869,0.8242201209068298,-0.5502162575721741
1761141538852993500,0.84299365234375,0.1990208476781845,1.1797040700912476,-0.5948113799095154
1761141538863053300,0.85305322265625,0.25654834508895874,1.3305431604385376,-0.6238667368888855
1761141538873112300,0.8631123046875,0.3858130872249603,1.255629062652588,-0.6478240489959717
1761141538883172400,0.87317236328125,0.5732058882713318,1.1156866550445557,-0.6432857513427734
1761141538893231400,0.8832314453125,0.7504234313964844,1.0689934492111206,-0.6155712008476257
1761141538903291400,0.89329150390625,0.8578508496284485,1.0617544651031494,-0.5355027318000793
1761141538913351400,0.903351318359375,0.9133421182632446,1.1103919744491577,-0.41426602005958557
1761141538923410400,0.913410400390625,0.9767850041389465,1.200920581817627,-0.29448771476745605
1761141538933470500,0.923470458984375,1.0976842641830444,1.2990609407424927,-0.18712271749973297
1761141538943529500,0.933529541015625,1.263798713684082,1.4502536058425903,-0.0973997488617897
1761141538953589500,0.943589599609375,1.4551481008529663,1.6885660886764526,-0.01567072980105877
1761141538963649300,0.953649169921875,1.6424287557601929,1.9467660188674927,0.06451305001974106
1761141538973708300,0.963708251953125,1.7928943634033203,2.1426703929901123,0.13316267728805542
1761141538983768600,0.9737685546875,1.8840351104736328,2.272671937942505,0.17813706398010254
1761141538993827300,0.983827392578125,1.9051843881607056,2.356382131576538,0.2060149759054184
1761141539003887400,0.993887451171875,1.8561049699783325,2.394009828567505,0.2098959982395172
1761141539013946400,1.0039462890625,1.7168877124786377,2.3349294662475586,0.15479302406311035
1761141539024006400,1.01400634765625,1.5067152976989746,2.2743067741394043,0.04001797363162041
1761141539034066400,1.02406640625,1.2516628503799438,2.2253527641296387,-0.10993804037570953
1761141539044125400,1.03412548828125,0.9880554676055908,2.1733038425445557,-0.2907855808734894
1761141539054185500,1.044185546875,0.7784056067466736,2.1384944915771484,-0.4426921606063843
1761141539064244200,1.054244140625,0.6230117678642273,2.0758743286132812,-0.5564128756523132
1761141539074304300,1.06430419921875,0.5107705593109131,2.080965518951416,-0.6384837031364441
1761141539084364300,1.0743642578125,0.4255795180797577,2.1954567432403564,-0.7503311634063721
1761141539094423300,1.08442333984375,0.30080899596214294,2.3187508583068848,-0.9546467065811157
1761141539104483300,1.0944833984375,0.13441604375839233,2.3323042392730713,-1.228691816329956
1761141539114542600,1.10454248046875,0.09359120577573776,2.042630672454834,-1.4444762468338013
1761141539124602400,1.114602294921875,0.19157955050468445,1.5295581817626953,-1.4900431632995605
1761141539134662400,1.124662353515625,0.29309946298599243,0.9247604608535767,-1.3636776208877563
1761141539144721200,1.13472119140625,0.34800851345062256,0.403690904378891,-1.1427357196807861
1761141539154781400,1.144781494140625,0.38815852999687195,0.13777728378772736,-0.8987280130386353
1761141539164840400,1.15484033203125,0.4767768085002899,0.5413633584976196,-0.8418708443641663
1761141539174900200,1.164900146484375,0.6770661473274231,0.6042042970657349,-0.7735133171081543
1761141539184959500,1.17495947265625,0.947706401348114,0.7804064750671387,-0.7759338617324829
1761141539195019500,1.18501953125,1.1833876371383667,0.8014181852340698,-0.721585214138031
1761141539205079300,1.195079345703125,1.3129693269729614,0.9303074479103088,-0.7210770845413208
1761141539215138600,1.205138671875,1.3498197793960571,0.996034562587738,-0.7066001296043396
1761141539225198300,1.2151982421875,1.3312617540359497,1.0423426628112793,-0.6756949424743652
1761141539235257300,1.22525732421875,1.2139348983764648,1.007761836051941,-0.6079835295677185
1761141539245317400,1.2353173828125,1.0455740690231323,0.8563648462295532,-0.42614874243736267
1761141539255376400,1.24537646484375,0.8343706130981445,0.6263020038604736,-0.08885686099529266
1761141539265436400,1.2554365234375,0.5855938196182251,0.3621278405189514,0.4089808762073517
1761141539275496400,1.265496337890625,0.24983634054660797,0.049637045711278915,1.0605354309082031
1761141539285555500,1.275555419921875,-0.14670540392398834,-0.23041804134845734,1.796590805053711
1761141539295615500,1.285615478515625,-0.4432348310947418,-0.635405957698822,2.523847818374634
1761141539305674200,1.29567431640625,-0.6755275130271912,-0.9565152525901794,3.154991388320923
1761141539315734300,1.305734375,-0.836912214756012,-1.1909058094024658,3.451270818710327
1761141539325794600,1.315794677734375,-0.778181791305542,-1.5595815181732178,3.1856720447540283
1761141539335853300,1.325853271484375,-0.4343673884868622,-1.6839570999145508,2.4819252490997314
1761141539345913300,1.335913330078125,0.1492885947227478,-1.5838779211044312,1.6341142654418945
1761141539355972400,1.345972412109375,0.6661791801452637,-1.7466254234313965,0.8148743510246277
1761141539366032400,1.356032470703125,0.8206947445869446,-2.252309799194336,0.24577385187149048
1761141539376092400,1.366092529296875,0.7999916672706604,-3.387312889099121,0.05070409178733826
1761141539386151400,1.3761513671875,0.7369195222854614,-4.184333801269531,0.35799264907836914
1761141539396211500,1.38621142578125,0.4465728998184204,-4.736721038818359,0.7129450440406799
1761141539406270200,1.396270263671875,0.17865143716335297,-5.3038740158081055,1.1176365613937378
1761141539416330200,1.406330322265625,0.060347624123096466,-5.720845699310303,1.2833094596862793
1761141539426389500,1.416389404296875,0.06946069747209549,-5.816657543182373,1.1158829927444458
1761141539436449300,1.42644921875,0.1732116937637329,-5.907711505889893,0.6255080103874207
1761141539446509300,1.43650927734375,0.3366813063621521,-5.7990875244140625,-0.0419674813747406
1761141539456568600,1.446568603515625,0.6351820230484009,-5.492275238037109,-0.7785635590553284
1761141539466628400,1.45662841796875,0.7228248119354248,-5.3113532066345215,-1.6022634506225586
1761141539476687400,1.466687255859375,0.5435435771942139,-4.972034931182861,-2.338411569595337
1761141539486747400,1.476747314453125,0.17572055757045746,-4.340036869049072,-2.929500102996826
1761141539496807400,1.486807373046875,-0.14120788872241974,-3.6103458404541016,-3.5307936668395996
1761141539506866200,1.4968662109375,-0.34410879015922546,-2.760302782058716,-4.126339435577393
1761141539516926200,1.50692626953125,-0.4896940290927887,-1.7856882810592651,-4.654056549072266
1761141539526985200,1.516985107421875,-0.5920270681381226,-0.8129671216011047,-5.094067096710205
1761141539537045200,1.527045166015625,-0.686887264251709,-0.3150063157081604,-5.371607780456543
1761141539547104300,1.537104248046875,-0.7004555463790894,-0.18003864586353302,-5.495858192443848
1761141539557164300,1.547164306640625,-0.565960705280304,-0.3270871043205261,-5.480062484741211
1761141539567224300,1.557224365234375,-0.2621789276599884,-0.7460007667541504,-5.14238166809082
1761141539577283000,1.567282958984375,0.08500666916370392,-1.0970631837844849,-4.449172496795654
1761141539587343000,1.577343017578125,0.3525627553462982,-1.4134525060653687,-3.5407931804656982
1761141539597402400,1.58740234375,0.5179166793823242,-1.5351910591125488,-2.5551717281341553
1761141539607462100,1.597462158203125,0.6216537356376648,-1.7793550491333008,-1.6271052360534668
1761141539617522200,1.607522216796875,0.5875228047370911,-2.076834201812744,-0.8953838348388672
1761141539627581400,1.61758154296875,0.4671167731285095,-2.3305304050445557,-0.2893296182155609
1761141539637641200,1.62764111328125,0.29652199149131775,-2.5502161979675293,0.23054778575897217
1761141539647700200,1.6377001953125,0.1183762326836586,-2.7297439575195312,0.6432054042816162
1761141539657760300,1.64776025390625,0.003120590467005968,-2.8242368698120117,0.9612693786621094
1761141539667819300,1.6578193359375,-0.04604163020849228,-2.8418140411376953,1.2186356782913208
1761141539677879300,1.66787939453125,-0.04257559776306152,-2.141678810119629,1.404209017753601
1761141539687939000,1.67793896484375,-0.08480533957481384,-1.0922256708145142,1.5391428470611572
1761141539697998300,1.687998291015625,-0.21129778027534485,-0.10914589464664459,1.718077540397644
1761141539708058400,1.698058349609375,-0.3875417709350586,1.0058951377868652,1.9877643585205078
1761141539718117000,1.7081171875,-0.5426937937736511,1.8818917274475098,2.366750478744507
1761141539728177400,1.718177490234375,-0.6719458103179932,2.3730456829071045,2.852783441543579
1761141539738237200,1.7282373046875,-0.7803553938865662,2.522634983062744,3.416996479034424
1761141539748296200,1.738296142578125,-0.9193569421768188,2.3146259784698486,4.028312683105469
1761141539758356200,1.748356201171875,-1.1053961515426636,1.7596491575241089,4.7169318199157715
1761141539768415200,1.758415283203125,-1.2874783277511597,1.1453008651733398,5.481441497802734
1761141539778475300,1.768475341796875,-1.4388368129730225,0.573239266872406,6.165292739868164
1761141539788534300,1.7785341796875,-1.6529443264007568,-0.7537779211997986,6.300992488861084
1761141539798594300,1.78859423828125,-1.9099199771881104,-4.346373558044434,4.236582279205322
1761141539808654300,1.798654296875,-2.2875208854675293,-4.129357814788818,1.839727520942688
1761141539818713000,1.808713134765625,-2.6066696643829346,-3.4228806495666504,1.1142711639404297
1761141539828773400,1.8187734375,-2.9764974117279053,-1.7040787935256958,0.6990060806274414
1761141539838832000,1.82883203125,-3.4209697246551514,0.7338570356369019,0.7599117755889893
1761141539848892200,1.83889208984375,-3.903259754180908,2.928720474243164,1.0118268728256226
1761141539858952200,1.8489521484375,-3.740293025970459,2.764263868331909,0.8423857092857361
1761141539869011200,1.85901123046875,-2.807185411453247,2.4021341800689697,0.5740362405776978
1761141539879071200,1.8690712890625,-2.2399773597717285,3.056978702545166,0.8130770921707153
1761141539889130200,1.879130126953125,-1.629422903060913,3.2734529972076416,1.3288893699645996
1761141539899190300,1.889190185546875,-0.3959725797176361,1.7805107831954956,2.2520644664764404
1761141539909249300,1.899249267578125,0.30770835280418396,0.1219552755355835,3.0077123641967773
1761141539919309000,1.90930908203125,0.1544846147298813,-0.55370032787323,3.670728921890259
1761141539929369000,1.919369140625,-0.26029685139656067,-0.9213084578514099,4.210635185241699
1761141539939428400,1.929428466796875,-0.5741603374481201,-0.9435481429100037,4.402718544006348
1761141539949488000,1.939488037109375,-0.6267175674438477,-0.48490941524505615,4.221276760101318
1761141539959547400,1.94954736328125,-0.4150823950767517,0.2133059799671173,3.7127578258514404
1761141539969607400,1.959607421875,-0.3030112385749817,0.8722394108772278,2.866767168045044
1761141539979666200,1.969666259765625,-0.11818279325962067,1.2158151865005493,1.8420839309692383
1761141539989726200,1.979726318359375,0.20937083661556244,1.0282279253005981,0.774107038974762
1761141539999786200,1.9897861328125,0.5041399598121643,0.2855769395828247,-0.20277978479862213
1761141540009845200,1.99984521484375,0.6315892338752747,-0.34789586067199707,-0.8826310038566589
1761141540019905300,2.0099052734375,0.7421913146972656,-0.7653616666793823,-1.3903967142105103
1761141540029964300,2.01996435546875,0.8449128866195679,-1.1148749589920044,-1.8530175685882568
1761141540040024300,2.0300244140625,0.8211081027984619,-1.5753810405731201,-2.187415599822998
1761141540050083000,2.0400830078125,0.8293766975402832,-1.599096417427063,-2.2404823303222656
1761141540060143400,2.050143310546875,0.784860372543335,-1.1675695180892944,-2.327077627182007
1761141540070203400,2.060203369140625,0.5780699253082275,-0.36458680033683777,-2.555023193359375
1761141540080262100,2.07026220703125,0.3660990297794342,0.6650003790855408,-2.7603249549865723
1761141540090322200,2.080322265625,0.23026634752750397,1.472890019416809,-2.928557872772217
1761141540100381200,2.090381103515625,0.17399635910987854,1.924475908279419,-3.151728868484497
1761141540110441200,2.100441162109375,0.13999417424201965,2.154346227645874,-3.4113240242004395
1761141540120501200,2.110501220703125,0.06284362077713013,2.1214370727539062,-3.6009345054626465
1761141540130560300,2.120560302734375,-0.06969444453716278,1.8794573545455933,-3.6603496074676514
1761141540140620300,2.130620361328125,-0.15353146195411682,1.5844964981079102,-3.5734572410583496
1761141540150679300,2.14067919921875,-0.1635175198316574,1.3621464967727661,-3.3288300037384033
1761141540160739000,2.150739013671875,-0.14353998005390167,1.0815805196762085,-2.9697811603546143
1761141540170798300,2.16079833984375,-0.2610839009284973,0.7657762169837952,-2.463404893875122
1761141540180858000,2.170858154296875,-0.4324371814727783,0.44670918583869934,-1.8404408693313599
1761141540190918100,2.180918212890625,-0.5652793645858765,0.07258352637290955,-1.2306874990463257
1761141540200977400,2.190977294921875,-0.6244155764579773,-0.258827269077301,-0.7095558643341064
1761141540211037200,2.201037109375,-0.6072445511817932,-0.4675634205341339,-0.40692567825317383
1761141540221096200,2.21109619140625,-0.6488412022590637,-0.6513272523880005,-0.352306991815567
1761141540231156200,2.22115625,-0.7681074142456055,-0.6604512333869934,-0.4901016056537628
1761141540241216300,2.23121630859375,-0.8303207159042358,-0.6430003046989441,-0.7032250761985779
1761141540251275300,2.241275146484375,-0.7029742002487183,-0.647121012210846,-0.7877769470214844
1761141540261335000,2.2513349609375,-0.4063848853111267,-0.555522620677948,-0.6971513628959656
1761141540271394300,2.261394287109375,-0.08366010338068008,-0.30927348136901855,-0.44621768593788147
1761141540281454300,2.271454345703125,0.20860615372657776,0.014590050093829632,-0.1397692859172821
1761141540291513000,2.28151318359375,0.39575180411338806,0.35262802243232727,0.12286525964736938
1761141540301573400,2.291573486328125,0.5227872133255005,0.6321249008178711,0.2829461395740509
1761141540311633400,2.30163330078125,0.48354315757751465,0.8316593170166016,0.34497061371803284
1761141540321692200,2.311692138671875,0.2888265550136566,0.7434337139129639,0.27833202481269836
1761141540331752200,2.321752197265625,0.10498802363872528,0.2126004695892334,0.09718406945466995
1761141540341811200,2.331811279296875,0.014257640577852726,-0.2677350342273712,-0.17452912032604218
1761141540351871200,2.341871337890625,0.07934769243001938,-0.661249577999115,-0.43163466453552246
1761141540361930200,2.35193017578125,0.21773752570152283,-1.0180225372314453,-0.6858685612678528
1761141540371990300,2.361990234375,0.35852980613708496,-1.072300672531128,-0.7846587896347046
1761141540382050300,2.37205029296875,0.44390174746513367,-0.8027846813201904,-0.5797562599182129
1761141540392109000,2.382109130859375,0.45866870880126953,-0.7302907705307007,-0.2818923890590668
1761141540402169300,2.39216943359375,0.4763149321079254,-1.1463156938552856,0.05601273849606514
1761141540412228400,2.402228271484375,0.4504138231277466,-1.840854287147522,0.12200533598661423
1761141540422288100,2.4122880859375,0.39777183532714844,-2.5059802532196045,0.27840015292167664
1761141540432347400,2.422347412109375,0.6672834753990173,-2.6642568111419678,0.447905570268631
1761141540442407200,2.4324072265625,1.042731761932373,-2.5561325550079346,0.35237881541252136
1761141540452467200,2.44246728515625,1.0010005235671997,-2.1512980461120605,0.17972663044929504
1761141540462526200,2.452526123046875,0.9430923461914062,-1.180211067199707,0.30257582664489746
1761141540472586200,2.462586181640625,1.0180987119674683,-0.1474086493253708,0.5332979559898376
1761141540482645200,2.472645263671875,1.1738947629928589,0.5780006647109985,0.7390955090522766
1761141540492705300,2.482705322265625,1.222687005996704,1.1058762073516846,0.9049845933914185
1761141540502766300,2.492766357421875,1.204663634300232,1.634057879447937,0.9797701835632324
1761141540512825300,2.502825439453125,1.0817198753356934,2.1295254230499268,0.9908230900764465
1761141540522885400,2.512885498046875,0.8722851276397705,2.4921505451202393,0.9732095003128052
1761141540532944100,2.522944091796875,0.6083645224571228,2.647808313369751,0.9569039940834045
1761141540543004200,2.533004150390625,0.5547314882278442,2.61838436126709,0.9629226326942444
1761141540553063400,2.5430634765625,0.5975434184074402,2.4338152408599854,0.9440077543258667
1761141540563123200,2.553123291015625,0.6286785006523132,2.0902464389801025,0.9025449156761169
1761141540573183200,2.563183349609375,0.666068971157074,1.6719605922698975,0.8787477016448975
1761141540583242200,2.5732421875,0.6963289976119995,1.2864872217178345,0.8524392247200012
1761141540593302300,2.58330224609375,0.6869104504585266,0.9632202982902527,0.791039764881134
1761141540603361300,2.593361328125,0.5897861123085022,0.7099660634994507,0.6571322083473206
1761141540613421300,2.60342138671875,0.46441328525543213,0.4720940887928009,0.4541689455509186
1761141540623480300,2.613480224609375,0.34943169355392456,0.2924664318561554,0.20583349466323853
1761141540633540400,2.623540283203125,0.23587264120578766,0.09965462982654572,-0.08772888034582138
1761141540643600100,2.63360009765625,0.11779426038265228,-0.1477850377559662,-0.43424147367477417
1761141540653659400,2.643659423828125,0.014334178529679775,-0.3305860161781311,-0.7773346304893494
1761141540663719200,2.65371923828125,0.03317588195204735,-0.4240556061267853,-1.0300562381744385
1761141540673778200,2.663778076171875,0.16344892978668213,-0.39549267292022705,-1.1745681762695312
1761141540683838500,2.67383837890625,0.2566743791103363,-0.3553023040294647,-1.2554727792739868
1761141540693897200,2.683897216796875,0.29913583397865295,-0.31214845180511475,-1.2749799489974976
1761141540703957200,2.693957275390625,0.3526889681816101,-0.09135228395462036,-1.2162728309631348
1761141540714017300,2.704017333984375,0.44127023220062256,0.21727611124515533,-1.1159158945083618
1761141540724076300,2.714076171875,0.4790826439857483,0.5264993906021118,-1.0064799785614014
1761141540734136300,2.72413623046875,0.42471423745155334,0.7571171522140503,-0.9035158157348633
1761141540744195300,2.7341953125,0.3185962736606598,0.8974156975746155,-0.8139764666557312
1761141540754255400,2.74425537109375,0.19541577994823456,0.9534395337104797,-0.7615140676498413
1761141540764314000,2.754314208984375,0.05771686136722565,0.9592925310134888,-0.7184512615203857
1761141540774374100,2.7643740234375,-0.08994556963443756,1.0533210039138794,-0.6359116435050964
1761141540784434400,2.774434326171875,-0.20625896751880646,1.1939828395843506,-0.527481734752655
1761141540794493200,2.7844931640625,-0.29006385803222656,1.2817374467849731,-0.42903614044189453
1761141540804553200,2.79455322265625,-0.3048708140850067,1.287908911705017,-0.34909945726394653
1761141540814612500,2.804612548828125,-0.16439680755138397,1.2709709405899048,-0.32059669494628906
1761141540824672300,2.81467236328125,0.055596113204956055,1.208048939704895,-0.39628666639328003
1761141540834732300,2.824732177734375,0.22006601095199585,1.1700222492218018,-0.5311896204948425
1761141540844791300,2.834791259765625,0.32757458090782166,1.1388163566589355,-0.6749617457389832
1761141540854851300,2.844851318359375,0.38193315267562866,1.0443044900894165,-0.7722281217575073
1761141540864910300,2.854910400390625,0.372418075799942,0.7902367115020752,-0.8393787145614624
1761141540874970000,2.86497021484375,0.2712688148021698,0.3899303078651428,-0.829397439956665
1761141540885029400,2.875029296875,0.18700158596038818,0.03187578171491623,-0.6389819383621216
1761141540895089400,2.88508935546875,0.10699968039989471,-0.24672389030456543,-0.3036436140537262
1761141540905149200,2.895149169921875,0.09656808525323868,-0.49874651432037354,0.07188088446855545
1761141540915208400,2.90520849609375,0.14654949307441711,-0.6814236640930176,0.34185272455215454
1761141540925268200,2.915268310546875,0.2242884486913681,-0.7617725729942322,0.4594675600528717
1761141540935327200,2.9253271484375,0.3232446014881134,-0.7180695533752441,0.4672900438308716
1761141540945387300,2.93538720703125,0.41477659344673157,-0.6141973733901978,0.4051712155342102
1761141540955446300,2.9454462890625,0.4745597541332245,-0.5004042983055115,0.34144094586372375
1761141540965506300,2.95550634765625,0.49809589982032776,-0.4295409321784973,0.33866021037101746
1761141540975566300,2.96556640625,0.48680222034454346,-0.38495108485221863,0.3793194890022278
1761141540985625300,2.975625244140625,0.46325284242630005,-0.3598056435585022,0.4396672248840332
1761141540995685400,2.985685302734375,0.4321303367614746,-0.3373003602027893,0.503864049911499
1761141541005744000,2.995744140625,0.39715468883514404,-0.34252431988716125,0.5631964206695557
1761141541015804400,3.005804443359375,0.37143945693969727,-0.3884337544441223,0.6048378944396973
1761141541025863200,3.01586328125,0.3451530337333679,-0.455172598361969,0.6339055299758911
1761141541035923200,3.025923095703125,0.328595370054245,-0.4836479127407074,0.6570475697517395
1761141541045983200,3.035983154296875,0.3362129032611847,-0.46288949251174927,0.658134937286377
1761141541056042200,3.046042236328125,0.3487585186958313,-0.44964292645454407,0.6448274254798889
1761141541066102300,3.056102294921875,0.35823339223861694,-0.45956119894981384,0.6310217976570129
1761141541076161300,3.066161376953125,0.3494257926940918,-0.47530367970466614,0.6115125417709351
1761141541086221300,3.07622119140625,0.32445028424263,-0.49971410632133484,0.6068374514579773
1761141541096280300,3.0862802734375,0.2929304540157318,-0.4788687527179718,0.6204333901405334
1761141541106340400,3.09634033203125,0.265708327293396,-0.4124041497707367,0.6566349267959595
1761141541116400000,3.106400146484375,0.2435910403728485,-0.3415432870388031,0.7092244029045105
1761141541126459400,3.11645947265625,0.22701621055603027,-0.2959434688091278,0.7192249298095703
1761141541136519200,3.126519287109375,0.20995385944843292,-0.25452253222465515,0.6781640648841858
1761141541146578400,3.136578369140625,0.20079277455806732,-0.16387802362442017,0.589455783367157
1761141541156638500,3.146638427734375,0.2064378708600998,-0.06309282034635544,0.46743208169937134
1761141541166697200,3.156697265625,0.20381243526935577,0.01669345609843731,0.3383101522922516
1761141541176757200,3.16675732421875,0.20404092967510223,0.0704893097281456,0.21389074623584747
1761141541186817300,3.1768173828125,0.2004370242357254,0.10098634660243988,0.10308139026165009
1761141541196876300,3.186876220703125,0.19239747524261475,0.11175137758255005,0.00298302061855793
1761141541206936300,3.196936279296875,0.18973948061466217,0.10010339319705963,-0.08099309355020523
1761141541216995300,3.206995361328125,0.19878411293029785,0.06581413000822067,-0.1519373059272766
1761141541227055400,3.217055419921875,0.21400345861911774,0.04509882256388664,-0.2111395001411438
1761141541237114000,3.227114013671875,0.20823131501674652,0.07442022860050201,-0.24939580261707306
1761141541247174100,3.237174072265625,0.1978999525308609,0.13957837224006653,-0.3016416132450104
1761141541257234400,3.247234375,0.2032584846019745,0.2348175346851349,-0.37577706575393677
1761141541267293200,3.257293212890625,0.22506459057331085,0.34672263264656067,-0.4597790539264679
1761141541277353200,3.267353271484375,0.2550903856754303,0.4744989573955536,-0.5439799427986145
1761141541287412500,3.27741259765625,0.27135762572288513,0.5835369229316711,-0.6237512826919556
1761141541297472300,3.28747216796875,0.25040575861930847,0.7089643478393555,-0.7111162543296814
1761141541307531300,3.29753125,0.2143741101026535,0.832995593547821,-0.8164057731628418
1761141541317591300,3.30759130859375,0.16619619727134705,0.817234218120575,-0.8280158042907715
1761141541327651300,3.3176513671875,0.09021445363759995,0.6704702377319336,-0.7678569555282593
1761141541337710300,3.32771044921875,-0.0019295881502330303,0.4251451790332794,-0.6996036171913147
1761141541347770000,3.33777001953125,-0.07767608761787415,0.14882230758666992,-0.6355639100074768
1761141541357829400,3.347829345703125,-0.11140182614326477,-0.13011477887630463,-0.4985394775867462
1761141541367889400,3.357889404296875,-0.08647863566875458,-0.3240286111831665,-0.26613953709602356
1761141541377948200,3.3679482421875,-0.016727248206734657,-0.41216084361076355,0.03479501232504845
1761141541388008400,3.378008544921875,0.11502744257450104,-0.38527530431747437,0.3397544324398041
1761141541398068200,3.388068115234375,0.274608850479126,-0.28015074133872986,0.5421575903892517
1761141541408127200,3.398127197265625,0.4275650978088379,-0.19327735900878906,0.6150131821632385
1761141541418187300,3.408187255859375,0.55463707447052,-0.14726325869560242,0.6034609079360962
1761141541428246300,3.418246337890625,0.591935396194458,-0.19968946278095245,0.5414682626724243
1761141541438306300,3.428306396484375,0.507502019405365,-0.33782443404197693,0.542921245098114
1761141541448365300,3.438365234375,0.36281248927116394,-0.549976110458374,0.6842107176780701
1761141541458425300,3.44842529296875,0.22320398688316345,-0.7962444424629211,0.9369540214538574
1761141541468484400,3.458484375,0.09382815659046173,-1.007965087890625,1.24092698097229
1761141541478544100,3.468544189453125,-0.02173040062189102,-1.1002933979034424,1.4799590110778809
1761141541488604400,3.4786044921875,-0.06941749900579453,-0.9714101552963257,1.5866914987564087
1761141541498661600,3.48866162109375,-0.03935041278600693,-0.6648105382919312,1.5236715078353882
1761141541508721700,3.4987216796875,-0.027835234999656677,-0.3368019759654999,1.2961838245391846
1761141541518780700,3.50878076171875,-0.09695332497358322,-0.12602369487285614,0.9475749731063843
1761141541528840700,3.5188408203125,-0.256508469581604,-0.07098696380853653,0.589981734752655
1761141541538899700,3.528899658203125,-0.4850527048110962,-0.14617758989334106,0.34360042214393616
1761141541548959700,3.538959716796875,-0.6864617466926575,-0.3264820873737335,0.329100638628006
1761141541559019500,3.54901953125,-0.7225968241691589,-0.5144128203392029,0.5985416769981384
1761141541569078800,3.559078857421875,-0.6213393211364746,-0.6096956133842468,1.0369536876678467
1761141541579138800,3.569138916015625,-0.44474563002586365,-0.6306536197662354,1.472093939781189
1761141541589197600,3.579197509765625,-0.23503001034259796,-0.628987193107605,1.7564480304718018
1761141541599257600,3.589257568359375,-0.05797453969717026,-0.6918878555297852,1.8745975494384766
1761141541609316600,3.599316650390625,-0.021494358777999878,-0.906801164150238,1.859005331993103
1761141541619376600,3.609376708984375,-0.10658928006887436,-1.2115576267242432,1.7656445503234863
1761141541629436700,3.619436767578125,-0.27520260214805603,-1.6019716262817383,1.592297077178955
1761141541639495700,3.62949560546875,-0.4075872600078583,-1.9747073650360107,1.3743354082107544
1761141541649555700,3.6395556640625,-0.3746183216571808,-2.2502176761627197,1.1794617176055908
1761141541659614500,3.649614501953125,-0.2239941954612732,-2.3887994289398193,1.0297987461090088
1761141541669674800,3.6596748046875,-0.06084404140710831,-2.495684862136841,0.9492972493171692
1761141541679733800,3.669733642578125,0.08284414559602737,-2.6366143226623535,0.9316388964653015
1761141541689793500,3.67979345703125,0.16460122168064117,-2.766366958618164,0.8873643279075623
1761141541699853600,3.689853515625,0.14331164956092834,-2.9048492908477783,0.7198541164398193
1761141541709912800,3.699912841796875,0.016760224476456642,-2.9503073692321777,0.47481369972229004
1761141541719972600,3.70997265625,-0.20766915380954742,-2.8719661235809326,0.2589080333709717
1761141541730031600,3.720031494140625,-0.46257492899894714,-2.690626382827759,0.13170917332172394
1761141541740091600,3.730091552734375,-0.6842042803764343,-2.442742109298706,0.11247075349092484
1761141541750150700,3.740150634765625,-0.8243525624275208,-2.090315103530884,0.15542849898338318
1761141541760210700,3.750210693359375,-0.8763608932495117,-1.6857883930206299,0.17803020775318146
1761141541770270500,3.7602705078125,-0.8505348563194275,-1.3314647674560547,0.17016012966632843
1761141541780329700,3.770329833984375,-0.7789027690887451,-1.075982928276062,0.1206628754734993
1761141541790389800,3.7803896484375,-0.6680352687835693,-0.8528864979743958,0.05726524814963341
1761141541800448800,3.79044873046875,-0.5156880617141724,-0.6710410714149475,-0.03272829204797745
1761141541810508800,3.8005087890625,-0.43100976943969727,-0.5295243859291077,-0.15330012142658234
1761141541820567600,3.810567626953125,-0.241524800658226,-0.4203302562236786,-0.22031404078006744
1761141541830627600,3.820627685546875,-0.03169811889529228,-0.3630293607711792,-0.3630070984363556
1761141541840686600,3.8306865234375,0.07762198150157928,-0.3582005202770233,-0.5335686802864075
1761141541850746600,3.84074658203125,0.11582142114639282,-0.38385939598083496,-0.7162896990776062
1761141541860806700,3.850806640625,0.10750143975019455,-0.3766406178474426,-0.8562100529670715
1761141541870865700,3.86086572265625,0.08130518347024918,-0.35059723258018494,-0.9695044159889221
1761141541880925700,3.87092578125,-0.021946368739008904,-0.31274572014808655,-1.0395255088806152
1761141541890984700,3.880984619140625,-0.12676425278186798,-0.22553186118602753,-1.0622997283935547
1761141541901044500,3.89104443359375,-0.2115129679441452,-0.1375223845243454,-1.0506949424743652
1761141541911103700,3.901103759765625,-0.27885305881500244,-0.06504214555025101,-1.003349781036377
1761141541921163500,3.91116357421875,-0.3181130886077881,0.012422820553183556,-0.9372966885566711
1761141541931223600,3.9212236328125,-0.3562721014022827,0.13689541816711426,-0.8880822062492371
1761141541941282800,3.93128271484375,-0.38325923681259155,0.3369947075843811,-0.8522350192070007
1761141541951342600,3.941342529296875,-0.38417088985443115,0.5709888339042664,-0.8229350447654724
1761141541961401600,3.951401611328125,-0.3455366790294647,0.8165813088417053,-0.7811034321784973
1761141541971462000,3.9614619140625,-0.27939969301223755,1.040779709815979,-0.7127051949501038
1761141541981520600,3.971520751953125,-0.18155035376548767,1.226674199104309,-0.6158859729766846
1761141541991580700,3.98158056640625,-0.06947759538888931,1.360114574432373,-0.48588085174560547
1761141542001640400,3.991640380859375,0.04943626746535301,1.4210999011993408,-0.33526045083999634
1761141542011699700,4.00169970703125,0.1730576753616333,1.3907722234725952,-0.17054656147956848
1761141542021759700,4.011759765625,0.26828643679618835,1.25724196434021,-0.024912388995289803
1761141542031818800,4.02181884765625,0.3440221846103668,1.025400996208191,0.1034148707985878
1761141542041878800,4.031878662109375,0.4140729010105133,0.7493597865104675,0.22560976445674896
1761141542051937500,4.0419375,0.49056002497673035,0.4836265742778778,0.34193143248558044
1761141542061997600,4.05199755859375,0.5937703251838684,0.17593930661678314,0.4447193145751953
1761141542072056800,4.062056884765625,0.6802464723587036,-0.11666122823953629,0.5407291054725647
1761141542082116600,4.07211669921875,0.7157251238822937,-0.3843235671520233,0.5575041174888611
1761141542092176600,4.0821767578125,0.701089084148407,-0.6522420048713684,0.4489767253398895
1761141542102235600,4.092235595703125,0.6155286431312561,-0.8485161662101746,0.29266247153282166
1761141542112295700,4.102295654296875,0.5145047903060913,-0.9053812623023987,0.15461091697216034
1761141542122354700,4.112354736328125,0.45070821046829224,-0.9842696785926819,-0.0037864455953240395
1761141542132414500,4.12241455078125,0.4432505667209625,-1.0157747268676758,-0.15125524997711182
1761141542142473700,4.1324736328125,0.4672994315624237,-0.8726776242256165,-0.2649397552013397
1761141542152533800,4.14253369140625,0.5837047696113586,-0.5291438698768616,-0.26067888736724854
1761141542162593500,4.152593505859375,0.8984536528587341,-0.033987924456596375,-0.03543166443705559
1761141542172652800,4.16265283203125,1.2675659656524658,0.2600194215774536,0.0962156131863594
1761141542182712600,4.172712646484375,1.4589442014694214,-0.06939442455768585,-0.16576087474822998
1761141542192771600,4.182771484375,1.4239667654037476,-0.6137315630912781,-0.5048325061798096
1761141542202832000,4.192831787109375,1.1694450378417969,-0.9255943894386292,-0.6263993978500366
1761141542212890600,4.202890625,0.8664600849151611,-0.817410409450531,-0.5520780682563782
1761141542222950700,4.21295068359375,0.7520623803138733,-0.24620521068572998,-0.6167318820953369
1761141542233010700,4.2230107421875,0.8342761397361755,0.6794484257698059,-1.0398049354553223
1761141542243069700,4.233069580078125,0.9643372297286987,1.785247564315796,-1.6669566631317139
1761141542253129700,4.243129638671875,1.110999584197998,2.860844373703003,-2.216242790222168
1761141542263188500,4.2531884765625,1.2939814329147339,3.5946271419525146,-2.516577959060669
1761141542273248800,4.263248779296875,1.5003372430801392,3.616515874862671,-2.4864766597747803
1761141542283307500,4.2733076171875,1.6547106504440308,2.781874895095825,-2.106092691421509
1761141542293367600,4.283367431640625,1.714572787284851,1.3003597259521484,-1.400132417678833
1761141542303427600,4.293427490234375,1.6688401699066162,-0.48126351833343506,-0.42796844244003296
1761141542313486600,4.303486572265625,1.632987141609192,-2.205977201461792,0.59843510389328
1761141542323546600,4.313546630859375,1.699784755706787,-3.4139342308044434,1.426755666732788
1761141542333606000,4.32360595703125,1.8998104333877563,-3.69124174118042,1.9072825908660889
1761141542343665700,4.333665771484375,2.1400227546691895,-3.0939230918884277,1.8389030694961548
1761141542353724700,4.343724609375,2.2812342643737793,-1.8376951217651367,1.2504409551620483
1761141542363784400,4.353784423828125,2.2498974800109863,-0.30902066826820374,0.5019264817237854
1761141542373843700,4.36384375,2.0963728427886963,1.0332114696502686,-0.11345109343528748
1761141542383903700,4.37390380859375,1.8728175163269043,1.7719084024429321,-0.43465203046798706
1761141542393963500,4.383963623046875,1.5925190448760986,1.9423335790634155,-0.4259500205516815
1761141542404022800,4.394022705078125,1.3682979345321655,1.810551404953003,-0.18178528547286987
1761141542414082800,4.404082763671875,1.1998326778411865,1.4941469430923462,0.16245786845684052
1761141542424141600,4.4141416015625,1.0409185886383057,1.087329387664795,0.5296739339828491
1761141542434201600,4.42420166015625,0.9140742421150208,0.7138683795928955,0.8759852647781372
1761141542444260600,4.434260498046875,0.7930055856704712,0.40381142497062683,1.1435896158218384
1761141542454320600,4.444320556640625,0.6576181650161743,0.16589848697185516,1.3465383052825928
1761141542464380700,4.454380615234375,0.502221941947937,-0.1135810911655426,1.565915584564209
1761141542474439700,4.464439697265625,0.3177524209022522,-0.47233250737190247,1.8598769903182983
1761141542484499700,4.474499755859375,0.1540050208568573,-0.8563012480735779,2.0957694053649902
1761141542494558500,4.484558349609375,0.07572474330663681,-0.8136675953865051,1.9507631063461304
1761141542504619000,4.494618896484375,0.10679691284894943,-0.2422747015953064,1.543360710144043
1761141542514678300,4.50467822265625,0.22998401522636414,0.38743647933006287,1.0040326118469238
1761141542524738000,4.514738037109375,0.39498043060302734,0.7696147561073303,0.4992983043193817
1761141542534797300,4.52479736328125,0.5662009716033936,0.87276691198349,0.19013573229312897
1761141542544857000,4.534857177734375,0.7415280938148499,0.6729744076728821,0.1024218499660492
1761141542554917000,4.544917236328125,0.8478264212608337,0.21126818656921387,0.1996345818042755
1761141542564976000,4.55497607421875,0.8183484077453613,-0.39431411027908325,0.3900037407875061
1761141542575036200,4.5650361328125,0.6567191481590271,-0.995766282081604,0.6118357181549072
1761141542585095200,4.57509521484375,0.4228416979312897,-1.465104579925537,0.8692896366119385
1761141542595155200,4.5851552734375,0.16702823340892792,-1.6566020250320435,1.109046459197998
1761141542605214200,4.595214111328125,-0.030088558793067932,-1.4472503662109375,1.173571228981018
1761141542615274200,4.605274169921875,-0.13922341167926788,-0.9874511957168579,1.0319128036499023
1761141542625334000,4.615333984375,-0.23486897349357605,-0.4406730830669403,0.7499485015869141
1761141542635393000,4.62539306640625,-0.3473603129386902,0.1724853366613388,0.4211054742336273
1761141542645453300,4.635453369140625,-0.44385358691215515,0.7585887312889099,0.10495147854089737
1761141542655512000,4.645511962890625,-0.5202933549880981,1.177801251411438,-0.1418164074420929
1761141542665572000,4.655572021484375,-0.5665755867958069,1.3868333101272583,-0.30779391527175903
1761141542675631000,4.665631103515625,-0.6054948568344116,1.4229568243026733,-0.3733782172203064
1761141542685691100,4.675691162109375,-0.6425138711929321,1.3580995798110962,-0.2898106276988983
1761141542695750100,4.685750244140625,-0.6525565981864929,1.2744221687316895,-0.11126571893692017
1761141542705810200,4.69581005859375,-0.603998601436615,1.146019697189331,0.10471504926681519
1761141542715870200,4.7058701171875,-0.48568040132522583,0.9489262700080872,0.3256169259548187
1761141542725929000,4.715928955078125,-0.32603615522384644,0.6857311129570007,0.5233206748962402
1761141542735989000,4.725989013671875,-0.16750812530517578,0.3295357823371887,0.622327983379364
1761141542746048300,4.73604833984375,-0.05559249967336655,-0.03521554917097092,0.6320192217826843
1761141542756108000,4.74610791015625,0.0006287648575380445,-0.3061578869819641,0.5956001877784729
1761141542766167000,4.7561669921875,0.018746251240372658,-0.5195921659469604,0.528637707233429
1761141542776227300,4.766227294921875,0.0015002223663032055,-0.7023202180862427,0.41163328289985657
1761141542786287000,4.776287109375,-0.07795172184705734,-0.8193957209587097,0.29052257537841797
1761141542796346000,4.78634619140625,-0.2028445452451706,-0.8399879336357117,0.17461171746253967
1761141542806406100,4.79640625,-0.32527777552604675,-0.7312721014022827,0.04522710666060448
1761141542816465200,4.806465087890625,-0.39567968249320984,-0.5565525889396667,-0.13083434104919434
1761141542826525200,4.816525146484375,-0.4199879467487335,-0.3593689501285553,-0.3258882462978363
1761141542836584200,4.826584228515625,-0.4247626066207886,-0.15667055547237396,-0.4927347004413605
1761141542846644200,4.836644287109375,-0.4337020516395569,0.04540371149778366,-0.5893526077270508
1761141542856703000,4.846702880859375,-0.44191253185272217,0.24320358037948608,-0.6271887421607971
1761141542866763000,4.856762939453125,-0.4473839998245239,0.4568961560726166,-0.6107080578804016
1761141542876823300,4.8668232421875,-0.42013296484947205,0.6070845723152161,-0.5823569893836975
1761141542886882000,4.876882080078125,-0.37754395604133606,0.6540222764015198,-0.573573648929596
1761141542896942000,4.886942138671875,-0.333138644695282,0.6216848492622375,-0.5779145359992981
1761141542907001000,4.8970009765625,-0.2890888750553131,0.5066255927085876,-0.5886532068252563
1761141542917061000,4.90706103515625,-0.2517754137516022,0.3451084792613983,-0.5907524824142456
1761141542927120100,4.9171201171875,-0.2500576674938202,0.21179699897766113,-0.5600446462631226
1761141542937180200,4.92718017578125,-0.26084017753601074,0.09016552567481995,-0.4944937527179718
1761141542947239200,4.9372392578125,-0.26971596479415894,-0.05004271864891052,-0.428879052400589
1761141542957299200,4.94729931640625,-0.26136288046836853,-0.13819660246372223,-0.4000435769557953
1761141542967359000,4.95735888671875,-0.22183147072792053,-0.1495075821876526,-0.41590431332588196
1761141542977418200,4.967418212890625,-0.16486382484436035,-0.10010163486003876,-0.47874751687049866
1761141542987478000,4.97747802734375,-0.1053275316953659,-0.01612657494843006,-0.5673050284385681
1761141542997537000,4.987537109375,-0.05533442273736,0.1526041328907013,-0.6482647061347961
1761141543007597300,4.997597412109375,-0.011105175130069256,0.4152173697948456,-0.7013782262802124
1761141543017656000,5.007656005859375,0.010482655838131905,0.6884111166000366,-0.7318302989006042
1761141543027716000,5.017716064453125,0.023616300895810127,0.9062097668647766,-0.7604374885559082
1761141543037775000,5.027775146484375,0.014926601201295853,1.0234155654907227,-0.8027819395065308
1761141543047835100,5.037835205078125,-0.00541222607716918,1.0219651460647583,-0.8188988566398621
1761141543057895200,5.047895263671875,-0.03105519898235798,0.9420276880264282,-0.7826242446899414
1761141543067954200,5.0579541015625,-0.04928586632013321,0.7868937253952026,-0.7065721154212952
1761141543078014200,5.06801416015625,-0.0544874332845211,0.58553546667099,-0.6101278066635132
1761141543088073000,5.078072998046875,-0.05652794614434242,0.4101543426513672,-0.5011855959892273
1761141543098133000,5.088133056640625,-0.06697890162467957,0.2881103754043579,-0.3952270448207855
1761141543108192300,5.098192138671875,-0.08178527653217316,0.222035214304924,-0.3078697919845581
1761141543118252000,5.108251953125,-0.07325448095798492,0.19354961812496185,-0.251761794090271
1761141543128311000,5.11831103515625,-0.048590678721666336,0.18769599497318268,-0.23221871256828308
1761141543138371300,5.128371337890625,-0.016385070979595184,0.19433791935443878,-0.21908266842365265
1761141543148431000,5.13843115234375,0.010954939760267735,0.17984819412231445,-0.21367672085762024
1761141543158490000,5.148489990234375,0.019329620525240898,0.14080774784088135,-0.20900721848011017
1761141543168550000,5.1585498046875,0.0034041842445731163,0.08281447738409042,-0.1950186938047409
1761141543178609200,5.168609130859375,-0.02959481254220009,0.022308288142085075,-0.15351007878780365
1761141543188669200,5.178669189453125,-0.0601857453584671,-0.04862873628735542,-0.09882818907499313
1761141543198728200,5.188728271484375,-0.07409781217575073,-0.10080914199352264,-0.04089523106813431
1761141543208788200,5.198788330078125,-0.06481829285621643,-0.14178213477134705,0.0025137602351605892
1761141543218848300,5.20884814453125,-0.04393722862005234,-0.16391514241695404,0.024767549708485603
1761141543228907000,5.218906982421875,-0.023757126182317734,-0.14421121776103973,0.04510531574487686
1761141543238967300,5.22896728515625,-0.006471717730164528,-0.10918895900249481,0.052032288163900375
1761141543249026000,5.239026123046875,0.0050983852706849575,-0.06646466255187988,0.04682953655719757
1761141543259086000,5.249086181640625,0.027162564918398857,-0.04267559573054314,0.03707250580191612
1761141543269145000,5.25914501953125,0.051107048988342285,-0.04915879666805267,0.008338597603142262
1761141543279205000,5.269205078125,0.05798041820526123,-0.058910779654979706,-0.019776776432991028
1761141543289264000,5.27926416015625,0.05883928760886192,-0.05849852040410042,-0.05328306928277016
1761141543299324200,5.28932421875,0.0632513090968132,-0.04395335912704468,-0.1116875633597374
1761141543309384200,5.29938427734375,0.06757842004299164,-0.026083551347255707,-0.19024868309497833
1761141543319443200,5.309443115234375,0.07745968550443649,0.009403460659086704,-0.2763679027557373
1761141543329503000,5.3195029296875,0.0832161083817482,0.07450097054243088,-0.3619863986968994
1761141543339562200,5.329562255859375,0.09165236353874207,0.14539788663387299,-0.4372786581516266
1761141543349622000,5.3396220703125,0.08575239777565002,0.18726171553134918,-0.49538856744766235
1761141543359681000,5.349680908203125,0.070628821849823,0.20782560110092163,-0.5441752076148987
1761141543369741300,5.3597412109375,0.04571015387773514,0.2277713418006897,-0.6012539267539978
1761141543379800000,5.369800048828125,0.022571738809347153,0.24908603727817535,-0.6641231179237366
1761141543389860000,5.379860107421875,-0.005701445043087006,0.25767868757247925,-0.7169450521469116
1761141543399920000,5.389920166015625,-0.030093921348452568,0.24730893969535828,-0.7665113806724548
1761141543409979100,5.399979248046875,-0.05845898389816284,0.2475225329399109,-0.807729959487915
1761141543420039200,5.4100390625,-0.09506668895483017,0.26255571842193604,-0.8322233557701111
1761141543430098200,5.42009814453125,-0.13080738484859467,0.2973347306251526,-0.8467724919319153
1761141543440158200,5.430158203125,-0.16473394632339478,0.34944748878479004,-0.8521466255187988
1761141543450217000,5.440217041015625,-0.20222938060760498,0.41186824440956116,-0.847656786441803
1761141543460277000,5.450277099609375,-0.23899966478347778,0.4675155580043793,-0.8353956341743469
1761141543470336300,5.460336181640625,-0.2697136402130127,0.49767985939979553,-0.8033498525619507
1761141543480396000,5.47039599609375,-0.2998780608177185,0.5085672736167908,-0.7832604646682739
1761141543490456000,5.4804560546875,-0.34160101413726807,0.48255378007888794,-0.8033061027526855
1761141543500515000,5.49051513671875,-0.394415944814682,0.42404723167419434,-0.8746441602706909
1761141543510575000,5.5005751953125,-0.45575252175331116,0.35258689522743225,-0.9737781882286072
1761141543520633900,5.5106337890625,-0.4993215501308441,0.30044296383857727,-1.0906612873077393
1761141543530694000,5.52069384765625,-0.5183793902397156,0.30013272166252136,-1.217262625694275
1761141543540753000,5.5307529296875,-0.5259295701980591,0.3805147409439087,-1.3187445402145386
1761141543550813000,5.54081298828125,-0.5169123411178589,0.4973609447479248,-1.368529200553894
1761141543560872200,5.5508720703125,-0.49565818905830383,0.6370000243186951,-1.3424838781356812
1761141543570932000,5.560931884765625,-0.46979808807373047,0.7533814907073975,-1.2482966184616089
1761141543580992000,5.570991943359375,-0.42575255036354065,0.8015039563179016,-1.130431056022644
1761141543591051000,5.581051025390625,-0.3707268238067627,0.8039868474006653,-1.0249302387237549
1761141543601111000,5.591111083984375,-0.31715551018714905,0.8416815400123596,-0.982429563999176
1761141543611170000,5.601170166015625,-0.28753796219825745,1.0003576278686523,-1.0976676940917969
1761141543621229800,5.611229736328125,-0.2943713068962097,1.2981328964233398,-1.3619612455368042
1761141543631289000,5.6212890625,-0.305181086063385,1.6602308750152588,-1.5665316581726074
1761141543641349000,5.63134912109375,-0.22613979876041412,2.0491268634796143,-1.603345274925232
1761141543651408000,5.641407958984375,-0.0013410516548901796,2.345662832260132,-1.5279176235198975
1761141543661468000,5.651468017578125,0.24723030626773834,2.442051887512207,-1.4102877378463745
1761141543671528200,5.661528076171875,0.28040289878845215,2.322341203689575,-1.2171012163162231
1761141543681587000,5.6715869140625,0.22172126173973083,1.9250056743621826,-0.9548739790916443
1761141543691647000,5.68164697265625,0.05714482069015503,1.167187213897705,-0.659533679485321
1761141543701706000,5.6917060546875,-0.29442232847213745,0.15034067630767822,-0.23595814406871796
1761141543711766000,5.70176611328125,-0.774074137210846,-0.8743371367454529,0.38917630910873413
1761141543721824800,5.71182470703125,-1.1216610670089722,-1.607940912246704,1.110993504524231
1761141543731885000,5.721885009765625,-1.048377275466919,-2.082876682281494,1.6754851341247559
1761141543741944000,5.731944091796875,-0.8357780575752258,-2.179779529571533,1.8760793209075928
1761141543752003800,5.74200390625,-0.6025168299674988,-1.8185532093048096,1.7388544082641602
1761141543762064000,5.75206396484375,-0.3206755518913269,-1.0079783201217651,1.5104824304580688
1761141543772123100,5.762123046875,-0.04004921391606331,-0.031753186136484146,1.3936983346939087
1761141543782183000,5.772182861328125,0.19409379363059998,0.7541940808296204,1.3479026556015015
1761141543792242200,5.7822421875,0.27249830961227417,0.9981290102005005,1.276349663734436
1761141543802302000,5.792302001953125,0.22185902297496796,0.680743396282196,1.1074835062026978
1761141543812361000,5.80236083984375,0.15382803976535797,-0.11217391490936279,0.8697593808174133
1761141543822421000,5.8124208984375,0.18869802355766296,-1.1286669969558716,0.7186059355735779
1761141543832481000,5.82248095703125,0.37831082940101624,-2.172441244125366,0.6537443399429321
1761141543842540000,5.8325400390625,0.6355779767036438,-2.799856662750244,0.46528416872024536
1761141543852600000,5.84260009765625,1.0952447652816772,-2.8959596157073975,0.5293832421302795
1761141543862659000,5.8526591796875,1.2873868942260742,-2.744879961013794,0.5883002281188965
1761141543872719000,5.862718994140625,1.3095380067825317,-2.3787474632263184,0.42533397674560547
1761141543882777900,5.87277783203125,1.2872551679611206,-1.953495979309082,0.09724151343107224
1761141543892838000,5.882837890625,1.1198803186416626,-1.631554126739502,-0.3102250397205353
1761141543902897000,5.89289697265625,0.9071521759033203,-1.5028795003890991,-0.5843666195869446
1761141543912957000,5.90295703125,0.702376127243042,-1.4965078830718994,-0.5877158045768738
1761141543923017000,5.913016845703125,0.5013061165809631,-1.5162112712860107,-0.3638209402561188
1761141543933076000,5.923075927734375,0.3120967745780945,-1.5425987243652344,0.011022975668311119
1761141543943136000,5.933135986328125,0.1704404652118683,-1.4432175159454346,0.44931095838546753
1761141543953195000,5.943195068359375,0.08668270707130432,-1.2601094245910645,0.7803360223770142
1761141543963255000,5.953255126953125,0.024804851040244102,-0.9375677108764648,0.9621903300285339
1761141543973314000,5.96331396484375,-0.013933755457401276,-0.47846272587776184,1.034980058670044
1761141543983373800,5.973373779296875,-0.03753005713224411,0.03713472932577133,1.005750298500061
1761141543993433000,5.98343310546875,-0.048143818974494934,0.5640488862991333,0.9009588360786438
1761141544003493000,5.9934931640625,-0.06077196076512337,1.0478278398513794,0.7544814944267273
1761141544013551900,6.0035517578125,-0.07574985176324844,1.4245660305023193,0.5932672619819641
1761141544023612000,6.01361181640625,-0.1105031967163086,1.6531822681427002,0.41482508182525635
1761141544033672200,6.023672119140625,-0.16930925846099854,1.7226364612579346,0.21736688911914825
1761141544043731000,6.03373095703125,-0.27299734950065613,1.7026605606079102,0.032282158732414246
1761141544053791000,6.043791015625,-0.42847588658332825,1.6304728984832764,-0.06817014515399933
1761141544063850000,6.05385009765625,-0.6089023351669312,1.5165553092956543,-0.03828015923500061
1761141544073910000,6.063909912109375,-0.7433712482452393,1.3596529960632324,0.1466422826051712
1761141544083969000,6.073968994140625,-0.7982572913169861,1.1826841831207275,0.42556026577949524
1761141544094029000,6.084029052734375,-0.7581767439842224,1.0833797454833984,0.6885597109794617
1761141544104088000,6.094088134765625,-0.678205132484436,1.0613553524017334,0.8457285761833191
1761141544114147800,6.10414794921875,-0.6467372179031372,1.110474705696106,0.8230631947517395
1761141544124207900,6.114207763671875,-0.6678619384765625,1.2920218706130981,0.6040928959846497
1761141544134267100,6.12426708984375,-0.7551411986351013,1.6315834522247314,0.23760734498500824
1761141544144327000,6.134326904296875,-0.9092108607292175,1.9945309162139893,-0.21772077679634094
1761141544154386000,6.144385986328125,-1.079315185546875,2.2712182998657227,-0.6164700388908386
1761141544164446200,6.1544462890625,-1.2312215566635132,2.3726916313171387,-0.8502800464630127
1761141544174505000,6.1645048828125,-1.3536523580551147,2.2985873222351074,-0.8931414484977722
1761141544184565000,6.17456494140625,-1.419505000114441,2.0846409797668457,-0.7818804979324341
1761141544194624000,6.1846240234375,-1.4020010232925415,1.8024165630340576,-0.5652464628219604
1761141544204684000,6.19468408203125,-1.3170228004455566,1.5007742643356323,-0.31664660573005676
1761141544214744000,6.204744140625,-1.1955839395523071,1.1529920101165771,-0.07335328310728073
1761141544224803000,6.214802978515625,-1.0283361673355103,0.7618643641471863,0.15609890222549438
1761141544234863000,6.224863037109375,-0.8434059619903564,0.3814525902271271,0.3760493993759155
1761141544244921900,6.234921875,-0.6450282335281372,0.0829101949930191,0.5897643566131592
1761141544254982000,6.24498193359375,-0.4516076445579529,-0.09641216695308685,0.840087890625
1761141544265041200,6.255041259765625,-0.24299108982086182,-0.0846012681722641,1.1152048110961914
1761141544275101000,6.265100830078125,-0.0014261365868151188,0.03178126737475395,1.2948824167251587
1761141544285160200,6.27516015625,0.23160842061042786,0.26539114117622375,1.2537813186645508
1761141544295220000,6.285219970703125,0.45275169610977173,0.7931004762649536,1.0606629848480225
1761141544305280000,6.295280029296875,0.7567397952079773,1.5808241367340088,0.8186451196670532
1761141544315339000,6.305339111328125,1.1730424165725708,2.4064223766326904,0.5641385316848755
1761141544325399000,6.31539892578125,1.685571312904358,3.2306971549987793,0.2411169856786728
1761141544335458000,6.3254580078125,2.3278443813323975,3.8782432079315186,-0.19654344022274017
1761141544345518000,6.33551806640625,2.854285955429077,3.856658458709717,-0.7965643405914307
1761141544355577000,6.3455771484375,2.8613178730010986,2.725658893585205,-1.3425544500350952
1761141544365637000,6.35563720703125,2.2068533897399902,0.34853971004486084,-1.2728735208511353
1761141544375696000,6.36569580078125,1.2143511772155762,-2.607020854949951,-0.6017249822616577
1761141544385756000,6.375755859375,0.40973708033561707,-4.682893753051758,0.08862035721540451
1761141544395816200,6.385816162109375,0.10565414279699326,-5.161922454833984,0.19549380242824554
1761141544405875000,6.395875,0.22069330513477325,-4.222966194152832,-0.2672816216945648
1761141544415935000,6.40593505859375,0.42829975485801697,-2.3910982608795166,-0.8720154762268066
1761141544425994000,6.415993896484375,0.657189130783081,-0.45860084891319275,-1.3902896642684937
1761141544436054000,6.426053955078125,0.7679076790809631,0.8295208811759949,-1.7318283319473267
1761141544446113000,6.436113037109375,0.6328578591346741,1.4672256708145142,-1.911837100982666
1761141544456173000,6.446173095703125,0.3447973430156708,1.5768886804580688,-2.0112340450286865
1761141544466232000,6.456232177734375,-0.0036819176748394966,1.282680630683899,-2.1407783031463623
1761141544476291800,6.466291748046875,-0.4164090156555176,0.815172016620636,-2.233078956604004
1761141544486351000,6.47635107421875,-0.9156748056411743,0.4392104148864746,-1.9932767152786255
1761141544496411100,6.4864111328125,-1.3135627508163452,0.4009895324707031,-1.430410385131836
1761141544506471000,6.496470947265625,-1.4663399457931519,0.6028290390968323,-0.8499074578285217
1761141544516530000,6.506530029296875,-1.3238747119903564,0.9336991310119629,-0.4305541515350342
1761141544526590200,6.516590087890625,-0.9771295785903931,1.2659082412719727,-0.16888178884983063
1761141544536649000,6.52664892578125,-0.58405601978302,1.4307552576065063,0.020330216735601425
1761141544546709000,6.536708984375,-0.2812492549419403,1.321062445640564,0.2383561134338379
1761141544556768000,6.54676806640625,-0.09896066039800644,0.9423943161964417,0.5644508600234985
1761141544566828000,6.556828125,-0.027293896302580833,0.3701387643814087,0.999143660068512
1761141544576886800,6.56688671875,-0.01093756128102541,-0.2822752594947815,1.49303138256073
1761141544586947000,6.576947021484375,0.012949185445904732,-0.9091455936431885,1.9758461713790894
1761141544597007000,6.587007080078125,0.06338146328926086,-1.4419329166412354,2.3686716556549072
1761141544607065900,6.59706591796875,0.11911597847938538,-1.7942556142807007,2.601950168609619
1761141544617126000,6.6071259765625,0.1809321939945221,-1.8592463731765747,2.6677346229553223
1761141544627185200,6.61718505859375,0.2571665048599243,-1.6843764781951904,2.59818696975708
1761141544637245000,6.627244873046875,0.3396589756011963,-1.3878949880599976,2.450043201446533
1761141544647304000,6.637303955078125,0.3910253047943115,-1.1111609935760498,2.2460780143737793
1761141544657364000,6.647364013671875,0.3641292452812195,-0.831936240196228,1.999574065208435
1761141544667423000,6.657423095703125,0.3007180690765381,-0.4704374372959137,1.7850323915481567
1761141544677483000,6.66748291015625,0.21997368335723877,-0.18897485733032227,1.6610549688339233
1761141544687543000,6.67754296875,0.14364346861839294,-0.02611428126692772,1.5935355424880981
1761141544697602000,6.68760205078125,0.08489758521318436,0.15008790791034698,1.5264153480529785
1761141544707662000,6.697662109375,0.04649260267615318,0.3596055209636688,1.4054734706878662
1761141544717721000,6.70772119140625,0.030790606513619423,0.5126184821128845,1.1847319602966309
1761141544727781000,6.717781005859375,0.04285147786140442,0.549614667892456,0.9176511764526367
1761141544737839900,6.72783984375,0.03613312169909477,0.4255286455154419,0.6282302737236023
1761141544747900000,6.73789990234375,-0.07200019806623459,0.12320148199796677,0.3181038200855255
1761141544757959000,6.747958984375,-0.28347304463386536,-0.27590328454971313,-0.039424460381269455
1761141544768019000,6.75801904296875,-0.5783966183662415,-0.7705432772636414,-0.4712328314781189
1761141544778078000,6.768077880859375,-0.9053617119789124,-1.2441718578338623,-0.8387192487716675
1761141544788138000,6.778137939453125,-1.2250131368637085,-1.5500704050064087,-0.985998272895813
1761141544798198000,6.788197998046875,-1.4930778741836548,-1.6046355962753296,-0.9035497307777405
1761141544808257000,6.798257080078125,-1.63289213180542,-1.4186749458312988,-0.6306449770927429
1761141544818317000,6.808317138671875,-1.5679278373718262,-0.9677150249481201,-0.28057965636253357
1761141544828376000,6.8183759765625,-1.2922357320785522,-0.35142308473587036,-0.03223711997270584
1761141544838435800,6.828435791015625,-0.9282608032226562,0.25763627886772156,0.016896869987249374
1761141544848495000,6.8384951171875,-0.6082087159156799,0.7346028089523315,-0.09938160330057144
1761141544858555100,6.84855517578125,-0.3916463255882263,1.0420218706130981,-0.2931004762649536
1761141544868614000,6.85861376953125,-0.28436657786369324,1.1629477739334106,-0.44408276677131653
1761141544878674000,6.868673828125,-0.26843979954719543,1.0919045209884644,-0.5472980737686157
1761141544888734200,6.878734130859375,-0.3260752856731415,0.8702473640441895,-0.5942283272743225
1761141544898793000,6.88879296875,-0.4305180609226227,0.54510498046875,-0.6046977639198303
1761141544908853000,6.89885302734375,-0.5546646118164062,0.1629771888256073,-0.5907242894172668
1761141544918912000,6.908912109375,-0.6832675933837891,-0.25625255703926086,-0.5885175466537476
1761141544928972000,6.918971923828125,-0.8074040412902832,-0.5497194528579712,-0.6103410720825195
1761141544939030800,6.92903076171875,-0.8583817481994629,-0.6279929876327515,-0.667702317237854
1761141544949091000,6.939091064453125,-0.8279420733451843,-0.577528715133667,-0.7820611000061035
1761141544959150000,6.949150146484375,-0.7447763681411743,-0.4887283146381378,-0.9350144267082214
1761141544969209900,6.9592099609375,-0.6333231925964355,-0.40923604369163513,-1.0541168451309204
1761141544979269000,6.96926904296875,-0.5025292634963989,-0.3440975248813629,-1.1010795831680298
1761141544989329200,6.9793291015625,-0.3554713726043701,-0.29264575242996216,-1.0791702270507812
1761141544999389000,6.989388916015625,-0.2293163537979126,-0.28540512919425964,-1.0038203001022339
1761141545009448000,6.999447998046875,-0.16353389620780945,-0.31639233231544495,-0.9049767255783081
1761141545019508000,7.009508056640625,-0.14265231788158417,-0.31068331003189087,-0.7631807327270508
1761141545029567000,7.01956689453125,-0.11743640899658203,-0.24206247925758362,-0.5918262600898743
1761141545039627000,7.029626953125,-0.06232895329594612,-0.16651073098182678,-0.4458285868167877
1761141545049686000,7.03968603515625,0.008413500152528286,-0.13805975019931793,-0.3429129421710968
1761141545059746000,7.04974609375,0.06438621878623962,-0.12606939673423767,-0.2704637944698334
1761141545069804800,7.0598046875,0.1366700828075409,-0.06482850760221481,-0.14767418801784515
1761141545079865000,7.069864990234375,0.23287491500377655,-0.01973692700266838,0.01170722208917141
1761141545089924000,7.079924072265625,0.3295217752456665,0.0036715264432132244,0.15231533348560333
1761141545099984000,7.08998388671875,0.4100736081600189,-0.03176156431436539,0.24020443856716156
1761141545110044000,7.1000439453125,0.4457704722881317,-0.13786469399929047,0.3262898325920105
1761141545120103000,7.11010302734375,0.4367021322250366,-0.23768183588981628,0.44638827443122864
1761141545130163000,7.120162841796875,0.3998362123966217,-0.3106257915496826,0.5454373359680176
1761141545140222000,7.130221923828125,0.3468089699745178,-0.38210341334342957,0.6088554859161377
1761141545150282000,7.140281982421875,0.2954874336719513,-0.47098109126091003,0.630196213722229
1761141545160341000,7.150341064453125,0.23280462622642517,-0.5528764724731445,0.6140212416648865
1761141545170401000,7.160401123046875,0.17624454200267792,-0.5872513651847839,0.5874724984169006
1761141545180460000,7.1704599609375,0.13425235450267792,-0.5969918966293335,0.5693936347961426
1761141545190520000,7.18052001953125,0.10323838889598846,-0.6213130354881287,0.5644683241844177
1761141545200579800,7.190579833984375,0.05428815260529518,-0.6283928155899048,0.5785870552062988
1761141545210639000,7.20063916015625,0.012486805208027363,-0.5823277831077576,0.592667281627655
1761141545220699100,7.21069921875,-0.00454650679603219,-0.49579259753227234,0.5768584609031677
1761141545230758000,7.2207578125,-0.004023818299174309,-0.39304932951927185,0.5344828963279724
1761141545240818000,7.23081787109375,-0.00529494509100914,-0.319512277841568,0.4754544794559479
1761141545250877000,7.240876953125,-0.055215634405612946,-0.23999615013599396,0.418698787689209
1761141545260937000,7.25093701171875,-0.10797072947025299,-0.10420156270265579,0.38666337728500366
1761141545270996000,7.260995849609375,-0.13116493821144104,0.05749859660863876,0.3142763376235962
1761141545281056000,7.271055908203125,-0.12286253273487091,0.211687371134758,0.19049768149852753
1761141545291115000,7.281114990234375,-0.10606036335229874,0.32836654782295227,0.0203535296022892
1761141545301174800,7.2911748046875,-0.09114453196525574,0.4797677993774414,-0.21515513956546783
1761141545311235000,7.301235107421875,-0.07793434709310532,0.7132006287574768,-0.48788678646087646
1761141545321294000,7.311294189453125,-0.12859006226062775,0.9463103413581848,-0.7485543489456177
1761141545331353900,7.321353759765625,-0.22286495566368103,1.138595461845398,-0.9457352161407471
1761141545341413000,7.3314130859375,-0.3356466293334961,1.2381683588027954,-1.0570646524429321
1761141545351473200,7.34147314453125,-0.4380270838737488,1.2744313478469849,-1.077802300453186
1761141545361532000,7.351531982421875,-0.5140243768692017,1.2798529863357544,-1.0015631914138794
1761141545371592000,7.361592041015625,-0.5759676694869995,1.2629892826080322,-0.9005101919174194
1761141545381651000,7.37165087890625,-0.62060546875,1.230247139930725,-0.8514227867126465
1761141545391711000,7.3817109375,-0.6587036848068237,1.22207510471344,-0.870779812335968
1761141545401770200,7.391770263671875,-0.7066141963005066,1.2424639463424683,-0.927483320236206
1761141545411830000,7.401830078125,-0.769661545753479,1.2427849769592285,-0.9373707175254822
1761141545421890000,7.41189013671875,-0.8235968947410583,1.2352620363235474,-0.909511387348175
1761141545431948800,7.42194873046875,-0.8599194884300232,1.2025907039642334,-0.8633675575256348
1761141545442009000,7.432009033203125,-0.9014056921005249,1.1346076726913452,-0.822031557559967
1761141545452068000,7.442068115234375,-0.9551995992660522,1.0597491264343262,-0.7673333287239075
1761141545462127900,7.4521279296875,-1.0053354501724243,0.9948456883430481,-0.6947473287582397
1761141545472187100,7.462187255859375,-1.0371366739273071,0.8935309052467346,-0.601526141166687
1761141545482247200,7.4722470703125,-1.0485591888427734,0.7596138715744019,-0.5012852549552917
1761141545492306000,7.482305908203125,-1.0431807041168213,0.5985110402107239,-0.3850742280483246
1761141545502365700,7.49236572265625,-1.0368174314498901,0.42853742837905884,-0.24235834181308746
1761141545512424700,7.5024248046875,-1.0224601030349731,0.2197585105895996,-0.0805000513792038
1761141545522484500,7.512484375,-0.9766526818275452,0.001512196846306324,0.08770360797643661
1761141545532544500,7.52254443359375,-0.9234354496002197,-0.18815049529075623,0.25938189029693604
1761141545542603800,7.532603759765625,-0.8623949885368347,-0.3234896659851074,0.42441612482070923
1761141545552663600,7.54266357421875,-0.7914225459098816,-0.4045776128768921,0.5672417283058167
1761141545562722600,7.55272265625,-0.7141101956367493,-0.44016435742378235,0.671664297580719
1761141545572782600,7.562782470703125,-0.633895754814148,-0.4404347240924835,0.7315335273742676
1761141545582841600,7.572841552734375,-0.5486463904380798,-0.42888006567955017,0.7539962530136108
1761141545592901600,7.582901611328125,-0.47581392526626587,-0.4118518829345703,0.7503531575202942
1761141545602960600,7.592960693359375,-0.4053373634815216,-0.3831629753112793,0.7507092356681824
1761141545613020700,7.603020751953125,-0.32299119234085083,-0.3506312370300293,0.7609348893165588
1761141545623079400,7.613079345703125,-0.23888564109802246,-0.3426004946231842,0.7586003541946411
1761141545633139700,7.6231396484375,-0.15714006125926971,-0.40777990221977234,0.7434816956520081
1761141545643199700,7.63319970703125,-0.06626501679420471,-0.5166534185409546,0.7316337823867798
1761141545653258500,7.643258544921875,0.05764375254511833,-0.6399093866348267,0.7317674160003662
1761141545663318500,7.653318603515625,0.2154107540845871,-0.7593806982040405,0.7566205859184265
1761141545673377500,7.66337744140625,0.33548295497894287,-0.8680436611175537,0.8154831528663635
1761141545683437600,7.6734375,0.3812863826751709,-0.9767214059829712,0.9164132475852966
1761141545693496800,7.683496826171875,0.3139936327934265,-1.0952272415161133,1.053956389427185
1761141545703556600,7.693556640625,0.14206741750240326,-1.238709568977356,1.1995090246200562
1761141545713615600,7.70361572265625,-0.11225226521492004,-1.3840038776397705,1.2969893217086792
1761141545723675600,7.713675537109375,-0.3840246796607971,-1.4527225494384766,1.3192697763442993
1761141545733734700,7.723734619140625,-0.6149383783340454,-1.4860234260559082,1.2551029920578003
1761141545743794700,7.733794677734375,-0.7455502152442932,-1.4036738872528076,1.1448416709899902
1761141545753854500,7.7438544921875,-0.7833718061447144,-1.1378265619277954,1.1025168895721436
1761141545763913700,7.753913818359375,-0.8029474020004272,-1.0845742225646973,0.9365153312683105
1761141545773973800,7.763973876953125,-0.7726103663444519,-0.9610908031463623,0.7675323486328125
1761141545784032500,7.774032470703125,-0.7340946197509766,-0.7262578010559082,0.6763066053390503
1761141545794092500,7.784092529296875,-0.6950715780258179,-0.3827665448188782,0.6211498379707336
1761141545804151600,7.794151611328125,-0.639259934425354,-0.031087888404726982,0.5399455428123474
1761141545814211600,7.804211669921875,-0.5662902593612671,0.267490416765213,0.4194882810115814
1761141545824270800,7.814270751953125,-0.4829162657260895,0.4754292368888855,0.28819310665130615
1761141545834330600,7.82433056640625,-0.39389950037002563,0.5566992163658142,0.1423528492450714
1761141545844389600,7.8343896484375,-0.34712639451026917,0.5918145775794983,0.010395881719887257
1761141545854449400,7.844449462890625,-0.3210722506046295,0.5696526169776917,-0.09703792631626129
1761141545864509700,7.854509765625,-0.3028857707977295,0.3905907869338989,-0.15348336100578308
1761141545874568700,7.864568603515625,-0.30589643120765686,0.15640003979206085,-0.09216499328613281
1761141545884628500,7.87462841796875,-0.3316348195075989,0.06363548338413239,0.05911533534526825
1761141545894687700,7.884687744140625,-0.3437589704990387,0.17982743680477142,0.18362991511821747
1761141545904747800,7.894747802734375,-0.38014575839042664,0.4971824884414673,0.3158702552318573
1761141545914806500,7.904806640625,-0.3108402192592621,0.5922659039497375,0.31193119287490845
1761141545924866600,7.914866455078125,-0.17385254800319672,0.5977832078933716,0.1880422681570053
1761141545934925600,7.924925537109375,-0.0703299269080162,0.6590157151222229,0.10947056114673615
1761141545944985600,7.934985595703125,-0.02848234213888645,0.6323931813240051,0.048706550151109695
1761141545955044600,7.945044677734375,-0.04142104461789131,0.5355846285820007,-0.002554064616560936
1761141545965104600,7.955104736328125,-0.10511453449726105,0.4398828148841858,0.04067037254571915
1761141545975163600,7.96516357421875,-0.17043255269527435,0.4100138545036316,0.18879644572734833
1761141545985223400,7.975223388671875,-0.18814603984355927,0.41900843381881714,0.3747008144855499
1761141545995283700,7.98528369140625,-0.17235367000102997,0.5115278959274292,0.5643877983093262
1761141546005342700,7.9953427734375,-0.11478757858276367,0.639599621295929,0.7002777457237244
1761141546015402500,8.005402587890625,-0.03564836084842682,0.705120325088501,0.7767722010612488
1761141546025461800,8.015461669921875,0.05822860077023506,0.6993327736854553,0.8199564218521118
1761141546035521500,8.025521484375,0.15213671326637268,0.6428300738334656,0.84333735704422
1761141546045580500,8.03558056640625,0.20049092173576355,0.559553325176239,0.8715556859970093
1761141546055640600,8.045640625,0.19145460426807404,0.46099230647087097,0.9032860994338989
1761141546065699600,8.055699462890624,0.13337239623069763,0.36035704612731934,0.9237514138221741
1761141546075759600,8.065759521484376,0.05792498216032982,0.23882214725017548,0.9387462139129639
1761141546085818600,8.075818603515625,0.0017368131084367633,0.02566567063331604,0.9121214747428894
1761141546095878700,8.085878662109375,-0.12905190885066986,-0.2090308964252472,0.870347261428833
1761141546105938700,8.095938720703124,-0.3066272437572479,-0.42995715141296387,0.8909119367599487
1761141546115997400,8.10599755859375,-0.4014587104320526,-0.6106531023979187,0.9971319437026978
1761141546126057700,8.1160576171875,-0.3928455114364624,-0.6988021731376648,1.118984580039978
1761141546136116500,8.126116455078124,-0.32674744725227356,-0.6061947345733643,1.087228536605835
1761141546146176500,8.136176513671876,-0.2689976096153259,-0.4171324074268341,0.8957499265670776
1761141546156235800,8.14623583984375,-0.2757682204246521,-0.2570526897907257,0.6366890668869019
1761141546166295600,8.156295654296875,-0.3975846469402313,-0.2618418335914612,0.36259886622428894
1761141546176354600,8.1663544921875,-0.5370504260063171,-0.39688828587532043,0.12446596473455429
1761141546186414600,8.17641455078125,-0.6293920874595642,-0.5582830309867859,-0.0400361604988575
1761141546196473600,8.1864736328125,-0.606268048286438,-0.7050280570983887,-0.12420832365751266
1761141546206533600,8.19653369140625,-0.4424448013305664,-0.8482691049575806,-0.12473749369382858
1761141546216592600,8.206592529296875,-0.2789314389228821,-0.9787536263465881,-0.06736679375171661
1761141546226652700,8.216652587890625,-0.22981102764606476,-1.1919420957565308,-0.025303496047854424
1761141546236712700,8.226712646484375,-0.22965051233768463,-1.5501781702041626,0.003926057368516922
1761141546246771500,8.236771484375,-0.1379871666431427,-2.1085124015808105,-0.08674365282058716
1761141546256831700,8.246831787109375,0.16493059694766998,-2.953895092010498,-0.3360840380191803
1761141546266890500,8.256890380859375,0.6046837568283081,-3.903157949447632,-0.6445928812026978
1761141546276950500,8.266950439453124,1.1861785650253296,-4.360901355743408,-1.0036402940750122
1761141546287009800,8.277009765625,1.8284456729888916,-3.75840425491333,-1.4725792407989502
1761141546297069600,8.287069580078125,2.4853274822235107,-2.4454336166381836,-1.9905332326889038
1761141546307128600,8.297128662109374,3.232893228530884,-0.9814773797988892,-2.4775867462158203
1761141546317188900,8.30718896484375,3.5376296043395996,0.4437234699726105,-2.8986504077911377
1761141546327247600,8.31724755859375,3.2009952068328857,1.7930023670196533,-3.1305644512176514
1761141546337307600,8.3273076171875,2.677698850631714,2.1644999980926514,-3.2137622833251953
1761141546347367400,8.337367431640626,2.2935125827789307,1.6158294677734375,-3.058678388595581
1761141546357426700,8.3474267578125,1.9113435745239258,0.8662667870521545,-2.5413897037506104
1761141546367486700,8.35748681640625,1.5644830465316772,0.4127868711948395,-1.6890933513641357
1761141546377545500,8.36754541015625,1.419644832611084,0.2035394161939621,-0.7619004845619202
1761141546387605800,8.377605712890626,1.437130331993103,0.27441489696502686,0.015292991884052753
1761141546397664500,8.38766455078125,1.5439114570617676,0.6145405173301697,0.5636469125747681
1761141546407724500,8.397724609375,1.7453089952468872,1.0458327531814575,0.8806880116462708
1761141546417783800,8.40778369140625,1.9556809663772583,1.338531732559204,0.9527450799942017
1761141546427843600,8.417843505859375,2.0780718326568604,1.4064713716506958,0.7650614380836487
1761141546437902600,8.427902587890625,2.0292224884033203,1.3241262435913086,0.3837416470050812
1761141546447962600,8.437962646484374,1.7798808813095093,1.1859819889068604,-0.03516000509262085
1761141546458021600,8.448021728515625,1.422131061553955,1.0652281045913696,-0.3464339077472687
1761141546468081700,8.45808154296875,1.0724284648895264,0.976122260093689,-0.4604811370372772
1761141546478141400,8.468141357421874,0.8021274209022522,0.9164733290672302,-0.3611134886741638
1761141546488200700,8.47820068359375,0.633719265460968,0.8689891695976257,-0.09683895856142044
1761141546498260700,8.4882607421875,0.5684528946876526,0.8394697308540344,0.27961212396621704
1761141546508319700,8.49831982421875,0.5758964419364929,0.8269491195678711,0.6846140027046204
1761141546518380000,8.508380126953124,0.6346537470817566,0.8274208307266235,1.07896089553833
1761141546528438800,8.518438720703125,0.7148958444595337,0.8101794719696045,1.416896939277649
1761141546538498800,8.528498779296875,0.7794991731643677,0.7192058563232422,1.6788800954818726
1761141546548558000,8.53855810546875,0.7998968362808228,0.5298492312431335,1.8595188856124878
1761141546558617900,8.548617919921876,0.75471431016922,0.2785675823688507,1.9492813348770142
1761141546568676900,8.5586767578125,0.6555461883544922,0.013672000728547573,1.94443941116333
1761141546578737000,8.56873681640625,0.5143405199050903,-0.19061583280563354,1.8727514743804932
1761141546588796000,8.5787958984375,0.3887016177177429,-0.24338608980178833,1.7947421073913574
1761141546598856000,8.58885595703125,0.3244361877441406,-0.22081990540027618,1.7246769666671753
1761141546608915700,8.598915771484375,0.3358909785747528,-0.2533770501613617,1.6048482656478882
1761141546618975000,8.60897509765625,0.3799575865268707,-0.43294981122016907,1.3685330152511597
1761141546629035000,8.619034912109376,0.4070611000061035,-0.7050513625144958,1.0182636976242065
1761141546639093800,8.62909375,0.35302406549453735,-0.9434344172477722,0.6399279236793518
1761141546649154000,8.639154052734375,0.1904226541519165,-1.1396600008010864,0.37165120244026184
1761141546659212800,8.649212890625,-0.035121604800224304,-1.2929407358169556,0.24252796173095703
1761141546669272800,8.65927294921875,-0.25298547744750977,-1.411481499671936,0.21010050177574158
1761141546679332000,8.66933203125,-0.42884594202041626,-1.5254849195480347,0.27422448992729187
1761141546689391900,8.679391845703124,-0.542289674282074,-1.6554375886917114,0.5621010661125183
1761141546699451000,8.689450927734375,-0.48079928755760193,-1.7864041328430176,1.088356614112854
1761141546709511000,8.699510986328125,-0.17515069246292114,-1.684370994567871,1.5972251892089844
1761141546719571000,8.709571044921875,0.29822584986686707,-1.276728630065918,1.7000874280929565
1761141546729630000,8.7196298828125,0.5901600122451782,-0.5475956201553345,1.3413347005844116
1761141546739689700,8.729689697265625,0.5527229905128479,0.2595426142215729,0.7466391921043396
1761141546749749000,8.7397490234375,0.33568522334098816,0.8012277483940125,0.188762366771698
1761141546759809000,8.74980908203125,0.16076213121414185,1.202881097793579,-0.008411302231252193
1761141546769867800,8.75986767578125,0.07875701040029526,1.5558432340621948,0.010480097495019436
1761141546779928000,8.769927978515625,-0.08165012300014496,1.8163344860076904,-0.09339776635169983
1761141546789986800,8.77998681640625,-0.24090182781219482,1.7714948654174805,-0.6008862853050232
1761141546800046800,8.790046875,-0.34119880199432373,1.3436298370361328,-1.6536208391189575
1761141546810105900,8.80010595703125,-0.45146217942237854,0.8566274046897888,-2.9218103885650635
1761141546820166000,8.810165771484375,-0.5137073993682861,0.518370509147644,-3.824481725692749
1761141546830225000,8.820224853515626,-0.4709005653858185,0.34438246488571167,-4.161346435546875
1761141546840285000,8.830284912109375,-0.2799699902534485,0.28279632329940796,-3.838954210281372
1761141546850345000,8.840344970703125,0.10520696640014648,0.2389950305223465,-2.9946322441101074
1761141546860404000,8.850404052734374,0.614573061466217,0.18638929724693298,-1.9941515922546387
1761141546870463700,8.860463623046876,1.0633881092071533,0.1097259446978569,-1.1013668775558472
1761141546880523000,8.87052294921875,1.345889687538147,0.04240726679563522,-0.46798816323280334
1761141546890582800,8.880582763671875,1.4237751960754395,-0.056519314646720886,-0.16170039772987366
1761141546900641800,8.890641845703126,1.3301100730895996,-0.06870207190513611,-0.1897554099559784
1761141546910702000,8.9007021484375,1.1659553050994873,0.08655782043933868,-0.4661073684692383
1761141546920760800,8.9107607421875,1.0680230855941772,0.36825311183929443,-0.8219059109687805
1761141546930820900,8.92082080078125,1.0865144729614258,0.5777541399002075,-1.1291595697402954
1761141546940880000,8.9308798828125,1.2122042179107666,0.668061375617981,-1.3179389238357544
1761141546950940000,8.94093994140625,1.3912602663040161,0.608971118927002,-1.346724033355713
1761141546960999000,8.9509990234375,1.500404953956604,0.36533042788505554,-1.218334674835205
1761141546971059000,8.961058837890626,1.4156790971755981,0.04683635011315346,-0.8868715763092041
1761141546981118000,8.971117919921875,1.1298211812973022,-0.18162384629249573,-0.35394659638404846
1761141546991177700,8.981177734375,0.7575131058692932,-0.3026013970375061,0.2828788459300995
1761141547001237800,8.99123779296875,0.3747050166130066,-0.3476865589618683,0.8603095412254333
1761141547011297000,9.001297119140625,0.030391305685043335,-0.37224435806274414,1.142557978630066
1761141547021356800,9.011356689453125,-0.24733521044254303,-0.29483070969581604,1.1161606311798096
1761141547031416000,9.021416015625,-0.4248548746109009,-0.04258833825588226,0.9497561454772949
1761141547041476000,9.03147607421875,-0.5096312165260315,0.2756673991680145,0.6976789236068726
1761141547051534800,9.041534912109375,-0.5272179841995239,0.6026356816291809,0.4072721302509308
1761141547061595000,9.051594970703125,-0.49816468358039856,0.9327189326286316,0.15613295137882233
1761141547071654000,9.06165380859375,-0.4427850544452667,1.1954342126846313,0.04449750855565071
1761141547081714000,9.0717138671875,-0.40055787563323975,1.302870750427246,0.13335269689559937
1761141547091773000,9.08177294921875,-0.344205379486084,1.34037446975708,0.3946263790130615
1761141547101833000,9.0918330078125,-0.25625237822532654,1.3147660493850708,0.676121175289154
1761141547111892000,9.10189208984375,-0.2110675871372223,1.1804423332214355,0.8467973470687866
1761141547121951700,9.11195166015625,-0.18282873928546906,0.9372081160545349,0.9309054017066956
1761141547132011800,9.12201171875,-0.1533246487379074,0.5762379765510559,1.0437475442886353
1761141547142071000,9.132071044921876,-0.12685233354568481,-0.010368738323450089,1.1097140312194824
1761141547152130800,9.142130859375,-0.1957070380449295,-0.9518963098526001,0.8070816397666931
1761141547162190000,9.152190185546875,-0.44572827219963074,-1.7657463550567627,0.16983255743980408
1761141547172250000,9.16225,-0.7969651222229004,-2.2052316665649414,-0.47481462359428406
1761141547182308900,9.172308837890625,-1.0984123945236206,-2.423863410949707,-0.9925764799118042
1761141547192369000,9.182368896484375,-1.2429695129394531,-2.3700473308563232,-1.2243026494979858
1761141547202428000,9.192427978515624,-1.1701520681381226,-1.9604471921920776,-1.0755916833877563
1761141547212488000,9.202488037109376,-0.8906798958778381,-1.3524342775344849,-0.6978297233581543
1761141547222546700,9.212546630859375,-0.48336201906204224,-0.5977640151977539,-0.2706589996814728
1761141547232607000,9.22260693359375,-0.07560811936855316,0.1645147204399109,0.07178278267383575
1761141547242666000,9.232666015625,0.2291809767484665,0.7690108418464661,0.28241121768951416
1761141547252725800,9.242725830078125,0.42370837926864624,1.1703662872314453,0.4023655652999878
1761141547262785800,9.252785888671875,0.5309802889823914,1.363533616065979,0.46436113119125366
1761141547272845000,9.262844970703124,0.5604982376098633,1.3553123474121094,0.49592119455337524
1761141547282904800,9.27290478515625,0.5271767377853394,1.2066025733947754,0.5532567501068115
1761141547292964000,9.282964111328125,0.4951769709587097,0.9868544936180115,0.6230238080024719
1761141547303023900,9.29302392578125,0.5074793100357056,0.7156223058700562,0.6302697062492371
1761141547313083000,9.303082763671876,0.5186315178871155,0.4130437970161438,0.5060524344444275
1761141547323143000,9.313142822265625,0.4531191885471344,0.2240368127822876,0.3284923732280731
1761141547333202000,9.323201904296875,0.33618593215942383,0.13627713918685913,0.13877436518669128
1761141547343262000,9.333261962890624,0.21825245022773743,0.041350238025188446,-0.09683416783809662
1761141547353321000,9.343321044921876,0.10445638746023178,-0.06516581773757935,-0.3913629949092865
1761141547363381000,9.353381103515625,-0.002704082289710641,-0.12873047590255737,-0.7144619822502136
1761141547373440000,9.36343994140625,-0.10314387083053589,-0.17289873957633972,-1.012559175491333
1761141547383499800,9.373499755859376,-0.1862240433692932,-0.2558629512786865,-1.2626256942749023
1761141547393559000,9.38355908203125,-0.23244932293891907,-0.3903970718383789,-1.4259896278381348
1761141547403618800,9.393618896484375,-0.2690260410308838,-0.5194793343544006,-1.5034478902816772
1761141547413678800,9.403678955078124,-0.30866506695747375,-0.5953413844108582,-1.4716219902038574
1761141547423738000,9.413738037109376,-0.35036781430244446,-0.6220354437828064,-1.313672661781311
1761141547433798000,9.4237978515625,-0.3686671853065491,-0.6180548667907715,-1.0472584962844849
1761141547443857000,9.43385693359375,-0.35276132822036743,-0.5435312390327454,-0.7235569953918457
1761141547453917000,9.4439169921875,-0.29208093881607056,-0.3822648525238037,-0.437355637550354
1761141547463976000,9.453975830078125,-0.2226891815662384,-0.17685087025165558,-0.27826347947120667
1761141547474036000,9.464035888671875,-0.17708627879619598,0.016399815678596497,-0.25175967812538147
1761141547484095000,9.474094970703124,-0.20545454323291779,0.04810848832130432,-0.21726062893867493
1761141547494155000,9.484155029296875,-0.22556620836257935,0.0571720264852047,-0.17083480954170227
1761141547504214300,9.49421435546875,-0.26553788781166077,-0.09987855702638626,-0.4034375846385956
1761141547514274300,9.5042744140625,-0.3294963538646698,-0.2530747652053833,-0.9211182594299316
1761141547524333600,9.51433349609375,-0.3627888858318329,-0.19055695831775665,-1.6314359903335571
1761141547534393300,9.524393310546875,-0.3572641611099243,0.09514137357473373,-2.4473178386688232
1761141547544453400,9.534453369140625,-0.32051730155944824,0.5490006804466248,-3.203153610229492
1761141547554512400,9.544512451171874,-0.1493322253227234,0.9699146151542664,-3.714890718460083
1761141547564572400,9.554572509765626,0.2754560708999634,1.152086615562439,-3.9432835578918457
1761141547574631400,9.56463134765625,0.8892611265182495,0.9624535441398621,-3.933086395263672
1761141547584691200,9.574691162109374,1.4207465648651123,0.42795902490615845,-3.6623449325561523
1761141547594750500,9.58475048828125,1.55899178981781,-0.1405249387025833,-3.0357487201690674
1761141547604810500,9.594810546875,1.274971604347229,-0.4481762647628784,-2.0031421184539795
1761141547614869200,9.604869140625,0.6393558979034424,-0.6067776083946228,-0.6771737933158875
1761141547624929500,9.614929443359374,-0.062479905784130096,-0.7531247138977051,0.5773274302482605
1761141547634988300,9.62498828125,-0.5313344597816467,-0.9120131731033325,1.3584808111190796
1761141547645048300,9.63504833984375,-0.6970868110656738,-1.0789501667022705,1.6725409030914307
1761141547655107300,9.645107421875,-0.5638654232025146,-1.1200517416000366,1.6768568754196167
1761141547665167400,9.65516748046875,-0.34640467166900635,-0.9395767450332642,1.433964729309082
1761141547675226400,9.665226318359375,-0.26653116941452026,-0.3936860263347626,1.1690723896026611
1761141547685286400,9.675286376953125,-0.41348323225975037,0.3543851673603058,1.046764850616455
1761141547695345400,9.685345458984376,-0.7277282476425171,1.0110474824905396,1.0720486640930176
1761141547705405400,9.695405517578125,-1.0768405199050903,1.2182939052581787,1.2213987112045288
1761141547715465200,9.70546533203125,-1.36115562915802,0.8433037400245667,1.4135801792144775
1761141547725524500,9.7155244140625,-1.6169118881225586,-0.0518723800778389,1.4665398597717285
1761141547735584300,9.725584228515626,-1.82998526096344,-1.0522384643554688,1.333824634552002
1761141547745643300,9.735643310546875,-1.8996695280075073,-1.683067798614502,1.1493486166000366
1761141547755703600,9.74570361328125,-1.7792237997055054,-1.595639944076538,1.099778413772583
1761141547765762300,9.75576220703125,-1.463614821434021,-0.8445350527763367,1.2260712385177612
1761141547775822300,9.765822265625,-1.1724061965942383,0.07079210877418518,1.4973315000534058
1761141547785881300,9.77588134765625,-1.036431908607483,0.5469601154327393,1.7927920818328857
1761141547795941400,9.78594140625,-1.1084672212600708,0.3064928948879242,1.9754875898361206
1761141547806000400,9.79600048828125,-1.3591959476470947,-0.3157588243484497,1.9289406538009644
1761141547816060400,9.806060302734375,-1.576206088066101,-1.0173801183700562,1.4870636463165283
1761141547826119400,9.816119384765624,-1.6850240230560303,-1.6666229963302612,0.8055853843688965
1761141547836179200,9.82617919921875,-1.3815033435821533,-2.251814126968384,-0.0632844865322113
1761141547846239200,9.8362392578125,-0.8350305557250977,-2.2439401149749756,-1.4582440853118896
1761141547856298500,9.846298583984375,-0.4778905510902405,-1.2850178480148315,-2.9762868881225586
1761141547866358300,9.856358154296874,-0.6890147924423218,0.36667099595069885,-4.141340732574463
1761141547876417300,9.866417236328125,-1.243030309677124,2.1066291332244873,-4.507194995880127
1761141547886477600,9.8764775390625,-1.6233136653900146,2.834080219268799,-3.86985182762146
1761141547896536300,9.886536376953124,-1.6112269163131714,2.148346424102783,-2.5412564277648926
1761141547906596400,9.896596435546876,-1.4837709665298462,0.7791248559951782,-1.1552488803863525
1761141547916655400,9.9066552734375,-1.4130067825317383,-0.373622864484787,-0.14392432570457458
1761141547926715400,9.91671533203125,-1.4257934093475342,-0.8274787664413452,0.34376415610313416
1761141547936774100,9.926774169921876,-1.504926085472107,-0.6224259734153748,0.4315163791179657
1761141547946834400,9.93683447265625,-1.579377293586731,0.011048596352338791,0.3223569989204407
1761141547956893400,9.9468935546875,-1.5140560865402222,0.8437638878822327,0.26539942622184753
1761141547966953200,9.956953125,-1.3641738891601562,1.6683567762374878,0.22635874152183533
1761141547977012500,9.967012451171875,-1.1759415864944458,2.2062792778015137,0.15837116539478302
1761141547987072500,9.977072509765625,-0.9858705401420593,2.455597400665283,0.1135670468211174
1761141547997132300,9.98713232421875,-0.8945267796516418,2.4166014194488525,0.06324661523103714
1761141548007191300,9.99719140625,-0.9595732688903809,2.17374324798584,0.0629219189286232
1761141548017251600,10.00725146484375,-1.0448559522628784,1.7109957933425903,0.2479972243309021
1761141548027310300,10.017310302734375,-0.9925736784934998,1.1057517528533936,0.5685697793960571
1761141548037370400,10.027370361328124,-0.7573063373565674,0.49606502056121826,0.872084379196167
1761141548047429400,10.037429443359375,-0.4247663915157318,0.1054852306842804,1.0272345542907715
1761141548057489400,10.047489501953125,-0.09828708320856094,-0.12585239112377167,1.0258899927139282
1761141548067548200,10.057548095703124,0.119230255484581,-0.22855126857757568,0.904374361038208
1761141548077608400,10.0676083984375,0.18484601378440857,-0.20298784971237183,0.7771934866905212
1761141548087667500,10.07766748046875,0.22013051807880402,-0.1257372796535492,0.6988781690597534
1761141548097727200,10.087727294921875,0.27847984433174133,0.015192404389381409,0.6212158203125
1761141548107786500,10.097786376953126,0.42142558097839355,0.11536930501461029,0.5565377473831177
1761141548117846500,10.107846435546875,0.6963058710098267,0.08899229019880295,0.5973456501960754
1761141548127905300,10.1179052734375,1.0587793588638306,-0.09417185932397842,0.8218132853507996
1761141548137965600,10.127965576171874,1.4520896673202515,-0.4940156638622284,1.220384955406189
1761141548148024300,10.1380244140625,1.822967290878296,-0.8928855061531067,1.6749683618545532
1761141548158084400,10.14808447265625,2.1545419692993164,-1.1621707677841187,2.001967430114746
1761141548168144400,10.158144287109375,2.321566343307495,-1.2587920427322388,2.197660207748413
1761141548178203400,10.168203369140626,2.0652213096618652,-1.3953757286071777,2.4171454906463623
1761141548188263400,10.178263427734375,1.4426405429840088,-1.6696529388427734,2.6570017337799072
1761141548198322200,10.188322265625,0.7712788581848145,-1.8373005390167236,2.727778434753418
1761141548208382500,10.198382568359374,0.280738890171051,-1.7890596389770508,2.485356569290161
1761141548218441500,10.20844140625,-0.005745077971369028,-1.4745606184005737,1.9937210083007812
1761141548228501200,10.218501220703125,-0.09745919704437256,-0.931416928768158,1.4929333925247192
1761141548238560500,10.228560546875,-0.09543918818235397,-0.3967336118221283,1.1916630268096924
1761141548248620300,10.238620361328126,-0.19207479059696198,0.07270195335149765,1.1798627376556396
1761141548258679300,10.24867919921875,-0.39485055208206177,0.3178006410598755,1.3731980323791504
1761141548268739600,10.258739501953125,-0.5962941646575928,0.3456876277923584,1.5865980386734009
1761141548278798300,10.26879833984375,-0.7461760640144348,0.25445494055747986,1.5709316730499268
1761141548288858400,10.2788583984375,-0.8268060088157654,0.2972523272037506,1.4008578062057495
1761141548298917400,10.28891748046875,-0.8574140071868896,0.3857875168323517,1.0878678560256958
1761141548308977400,10.298977294921874,-0.7240954637527466,0.32878580689430237,0.8031752705574036
1761141548319036400,10.309036376953125,-0.3634272515773773,-0.09471432864665985,0.7519818544387817
1761141548329096200,10.31909619140625,-0.029860500246286392,-0.43460795283317566,0.9569438099861145
1761141548339156500,10.329156494140625,0.04993686079978943,-0.5346423983573914,1.252099633216858
1761141548349215200,10.33921533203125,-0.09634038805961609,-0.7118929028511047,1.525658130645752
1761141548359275300,10.349275146484375,-0.17743682861328125,-0.743102490901947,1.6473941802978516
1761141548369334500,10.35933447265625,-0.20761027932167053,-1.0144609212875366,1.4497816562652588
1761141548379394300,10.369394287109374,-0.46981072425842285,-1.321566104888916,0.7611601948738098
1761141548389453300,10.379453369140625,-0.7771576642990112,-2.0122532844543457,-0.9055213928222656
1761141548399513600,10.389513671875,-1.0487778186798096,-2.3541171550750732,-3.198024272918701
1761141548409572400,10.399572265625,-1.3782613277435303,-1.968860149383545,-4.993811130523682
1761141548419632400,10.40963232421875,-1.743973970413208,-1.2239100933074951,-5.210774898529053
1761141548429691400,10.41969140625,-1.8053154945373535,-0.3096421957015991,-4.1447343826293945
1761141548439751400,10.42975146484375,-1.452996015548706,0.9552519917488098,-2.8700413703918457
1761141548449810200,10.43981005859375,-0.920051097869873,1.6971038579940796,-1.8964723348617554
1761141548459870500,10.449870361328125,-0.5190504193305969,1.6361483335494995,-1.24197256565094
1761141548469929500,10.459929443359375,-0.37115249037742615,1.2148476839065552,-0.7738677263259888
1761141548479989200,10.4699892578125,-0.354158878326416,0.7940690517425537,-0.4202417731285095
1761141548490049300,10.48004931640625,-0.3503044545650482,0.6356074810028076,-0.19308406114578247
1761141548500108500,10.490108642578125,-0.3273056447505951,0.6725369691848755,-0.09717270731925964
1761141548510168000,10.50016796875,-0.28580084443092346,1.041157841682434,-0.016436349600553513
1761141548520227000,10.51022705078125,-0.26200684905052185,1.4634718894958496,0.06255727261304855
1761141548530287400,10.520287353515625,-0.276703804731369,1.733092188835144,0.2354794144630432
1761141548540346000,10.53034619140625,-0.3901717960834503,1.6627482175827026,0.39382511377334595
1761141548550406100,10.54040625,-0.5781658887863159,1.1905237436294556,0.45181354880332947
1761141548560465200,10.550465087890625,-0.5886105298995972,0.5931665301322937,0.5524877309799194
1761141548570525200,10.560525146484375,-0.5381273627281189,0.13059461116790771,0.6097657084465027
1761141548580584000,10.570583984375,-0.431029349565506,-0.11554806679487228,0.6189916729927063
1761141548590644200,10.580644287109376,-0.29777491092681885,-0.1988070160150528,0.6049883961677551
1761141548600703200,10.590703125,-0.22502239048480988,-0.06921973079442978,0.6231157183647156
1761141548610763000,10.600762939453125,-0.27987319231033325,-0.10974818468093872,0.5688449144363403
1761141548620822300,10.610822265625,-0.34166863560676575,-0.14339002966880798,0.5558185577392578
1761141548630882300,10.62088232421875,-0.37836846709251404,-0.09090405702590942,0.5114427208900452
1761141548640942000,10.630942138671875,-0.4226568341255188,0.037214495241642,0.3987862169742584
1761141548651001000,10.6410009765625,-0.47308579087257385,0.26112014055252075,0.24746346473693848
1761141548661061000,10.65106103515625,-0.4522492289543152,0.6258243322372437,0.1273152232170105
1761141548671120100,10.6611201171875,-0.3486312925815582,0.966160237789154,0.03183051943778992
1761141548681180200,10.67118017578125,-0.2088015079498291,1.1315927505493164,-0.04325703904032707
1761141548691239200,10.6812392578125,-0.09591594338417053,1.0965216159820557,-0.057597484439611435
1761141548701299200,10.69129931640625,-0.047752413898706436,0.9326757192611694,0.05976909026503563
1761141548711358000,10.70135791015625,-0.03260243684053421,0.6522688269615173,0.27551665902137756
1761141548721418200,10.711418212890624,-0.039367131888866425,0.29672664403915405,0.44548705220222473
1761141548731477200,10.721477294921876,-0.07897234708070755,-0.10551238059997559,0.42582327127456665
1761141548741537000,10.731537109375,-0.18672171235084534,-0.4829092025756836,0.1926848143339157
1761141548751596300,10.74159619140625,-0.3067534565925598,-0.6224325895309448,-0.15125997364521027
1761141548761656000,10.751656005859376,-0.3785192370414734,-0.46846407651901245,-0.5134424567222595
1761141548771715000,10.761715087890625,-0.426135390996933,-0.24115143716335297,-0.8970189094543457
1761141548781775400,10.771775390625,-0.4790992736816406,-0.17114758491516113,-1.2100883722305298
1761141548791834000,10.781834228515624,-0.48100143671035767,-0.25131094455718994,-1.3415882587432861
1761141548801894100,10.79189404296875,-0.46285679936408997,-0.4765065312385559,-1.3160150051116943
1761141548811953200,10.801953125,-0.46765604615211487,-0.8004031777381897,-1.203331470489502
1761141548822013200,10.81201318359375,-0.5705288648605347,-1.0536575317382812,-1.0326542854309082
1761141548832073200,10.8220732421875,-0.7955561280250549,-1.1747103929519653,-0.9546389579772949
1761141548842132000,10.832132080078125,-0.9509790539741516,-1.2786024808883667,-1.060817003250122
1761141548852192300,10.842192138671875,-0.9953014850616455,-1.294260859489441,-1.311570167541504
1761141548862251300,10.852251220703126,-0.9628628492355347,-1.1231509447097778,-1.534748911857605
1761141548872311000,10.86231103515625,-1.018845796585083,-0.8897507190704346,-1.5587682723999023
1761141548882370300,10.872370361328125,-1.1533604860305786,0.023252537474036217,-1.3313415050506592
1761141548892430000,10.88243017578125,-1.17694091796875,1.5185269117355347,-1.1371890306472778
1761141548902489000,10.892489013671875,-1.1112258434295654,2.123100519180298,-1.080693006515503
1761141548912549400,10.90254931640625,-1.0796513557434082,1.4344438314437866,-1.0028948783874512
1761141548922608000,10.912608154296874,-1.049325704574585,1.3619579076766968,-0.5819056034088135
1761141548932668200,10.922668212890626,-0.990912914276123,1.638372778892517,-0.011936848983168602
1761141548942727200,10.93272705078125,-0.8978098630905151,1.5448106527328491,0.45827218890190125
1761141548952787200,10.942787109375,-0.7415618300437927,1.119507074356079,0.7443668246269226
1761141548962846200,10.95284619140625,-0.4679126739501953,0.44615110754966736,0.765261709690094
1761141548972906200,10.96290625,-0.02574320137500763,-0.1038559153676033,0.6628023386001587
1761141548982966300,10.97296630859375,0.3756902515888214,-0.04966298118233681,0.7718976736068726
1761141548993025000,10.98302490234375,0.6776471734046936,0.19033895432949066,0.9386137127876282
1761141549003085000,10.9930849609375,0.7876530289649963,0.24821850657463074,0.9810525178909302
1761141549013144300,11.003144287109375,0.7284592390060425,0.32460808753967285,1.0180671215057373
1761141549023204000,11.0132041015625,0.6298099160194397,0.31249627470970154,1.0060673952102661
1761141549033263000,11.02326318359375,0.4955521821975708,0.14354991912841797,0.8778656721115112
1761141549043323400,11.033323486328126,0.32862231135368347,-0.04659125953912735,0.7168331146240234
1761141549053382100,11.043382080078125,0.18104496598243713,-0.16244903206825256,0.5457620024681091
1761141549063442200,11.053442138671874,0.09346239268779755,-0.26163339614868164,0.36767345666885376
1761141549073501200,11.063501220703126,0.04937103018164635,-0.2531982958316803,0.1849934309720993
1761141549083561200,11.073561279296875,0.01808873936533928,-0.10910850763320923,0.013602775521576405
1761141549093620000,11.083619873046874,-0.013682984746992588,0.08504094183444977,-0.14417052268981934
1761141549103680300,11.09368017578125,-0.03745302930474281,0.23786139488220215,-0.29795634746551514
1761141549113739300,11.1037392578125,-0.07272133976221085,0.3852549195289612,-0.41107994318008423
1761141549123799000,11.113799072265625,-0.12465032190084457,0.5139442086219788,-0.4380654990673065
1761141549133858300,11.1238583984375,-0.17507757246494293,0.4799840748310089,-0.3750435411930084
1761141549143918300,11.13391845703125,-0.18059669435024261,0.2899811267852783,-0.25210508704185486
1761141549153978000,11.14397802734375,-0.14750629663467407,0.07022524625062943,-0.10971959680318832
1761141549164037000,11.154037109375,-0.06887965649366379,-0.16157709062099457,-0.0023492027539759874
1761141549174097200,11.16409716796875,0.011285338550806046,-0.24957577884197235,0.08376950025558472
1761141549184156200,11.17415625,0.01635999232530594,-0.20529593527317047,0.13395969569683075
1761141549194216200,11.18421630859375,-0.04170774668455124,-0.08906315267086029,0.1393716186285019
1761141549204275200,11.194275146484374,-0.07825404405593872,0.11639465391635895,0.14641115069389343
1761141549214335200,11.204335205078126,-0.06732822209596634,0.32243096828460693,0.200176402926445
1761141549224394000,11.21439404296875,-0.04603572562336922,0.4042006731033325,0.27125003933906555
1761141549234454300,11.224454345703125,-0.02141575701534748,0.3453247547149658,0.3008957505226135
1761141549244513300,11.23451318359375,0.0011966098099946976,0.17849315702915192,0.2934727072715759
1761141549254573000,11.244572998046875,0.0190269872546196,0.000844344962388277,0.24223069846630096
1761141549264632300,11.25463232421875,-0.01735631935298443,-0.12601134181022644,0.1671101152896881
1761141549274692000,11.264692138671874,-0.049046941101551056,-0.19464918971061707,0.13632221519947052
1761141549284751000,11.274751220703125,-0.02938002720475197,-0.21239329874515533,0.1608206331729889
1761141549294811100,11.28481103515625,0.013922614976763725,-0.1416148990392685,0.21339930593967438
1761141549304870100,11.2948701171875,0.05382155999541283,-0.01572994515299797,0.2832942306995392
1761141549314930200,11.30493017578125,0.09370841085910797,0.06847637891769409,0.2826942205429077
1761141549324990200,11.314990234375,0.10938884317874908,0.18748320639133453,0.2391507476568222
1761141549335049200,11.32504931640625,0.10103961825370789,0.25848594307899475,0.15384267270565033
1761141549345109200,11.335109130859376,0.07823550701141357,0.2994571030139923,0.05743491277098656
1761141549355168000,11.34516796875,0.03198711946606636,0.32623347640037537,-0.052949413657188416
1761141549365228300,11.355228271484375,-0.047596920281648636,0.34739577770233154,-0.15919916331768036
1761141549375287000,11.365287109375,-0.1407446712255478,0.3982362747192383,-0.2531169354915619
1761141549385347000,11.37534716796875,-0.20995835959911346,0.5299738049507141,-0.2986031770706177
1761141549395406300,11.38540625,-0.2697095274925232,0.7178150415420532,-0.26557642221450806
1761141549405466000,11.395466064453124,-0.3342685401439667,0.9083749055862427,-0.04414816200733185
1761141549415525000,11.405525146484376,-0.41053155064582825,0.5519545674324036,0.2422633171081543
1761141549425585200,11.415585205078125,-0.40394315123558044,-0.14160361886024475,0.32341277599334717
1761141549435644200,11.42564404296875,-0.25597506761550903,-0.4200325012207031,0.2918155789375305
1761141549445704200,11.4357041015625,-0.11641825735569,-0.38728493452072144,0.14080317318439484
1761141549455763200,11.44576318359375,-0.1032339483499527,-0.2732876241207123,-0.1086418479681015
1761141549465823200,11.4558232421875,-0.1441155970096588,-0.1419929563999176,-0.3805103898048401
1761141549475882000,11.465882080078124,-0.19635619223117828,-0.021946687251329422,-0.5899069309234619
1761141549485942000,11.47594189453125,-0.27892884612083435,0.0802001878619194,-0.7299396395683289
1761141549496001300,11.486001220703125,-0.3870355486869812,0.15468023717403412,-0.7566774487495422
1761141549506061000,11.49606103515625,-0.44546395540237427,0.08163584023714066,-0.6694924831390381
1761141549516120300,11.506120361328126,-0.3593725860118866,-0.057440198957920074,-0.5408051609992981
