time,seconds_elapsed,z,y,x
1761139728407885000,0.068885009765625,0.1496604001134634,-0.7357203130222857,-0.7256918170914054
1761139728417944300,0.0789443359375,0.16567746893465518,-0.7805909897536039,-0.6748391433410346
1761139728428003000,0.089003173828125,0.1478951440066099,-0.8280056518793105,-0.6799188577581197
1761139728438062000,0.09906201171875,0.11874153023660182,-0.9367677860237658,-0.8095767726760357
1761139728448121300,0.109121337890625,0.0661877516567707,-1.1917672139652074,-0.865990368489176
1761139728458180000,0.11918017578125,-0.01638824022114277,-1.4521660167321562,-0.8636801187854259
1761139728468239400,0.1292392578125,-0.11763970647454261,-1.5870285145558416,-0.9177770351540296
1761139728478298000,0.139298095703125,-0.2548912913918495,-1.5763430160209535,-1.090779367084056
1761139728488357400,0.149357421875,-0.4035895684748888,-1.501997676871717,-1.2642718936838209
1761139728498416000,0.159416015625,-0.5246598339200019,-1.3561179643407464,-1.3408983295075594
1761139728508475400,0.169475341796875,-0.6922837607473135,-1.1470530429698527,-1.3141384790062904
1761139728518534100,0.1795341796875,-0.8846464075118303,-0.8418909693688154,-1.1048092806760221
1761139728528593400,0.189593505859375,-1.1145213310688733,-0.48368397267013785,-0.7852448799740522
1761139728538652200,0.199652099609375,-1.2989537693560123,-0.25433015037775036,-0.5242636742092669
1761139728548711400,0.20971142578125,-1.3792770138710737,-0.14024594442769883,-0.319017215147987
1761139728558770200,0.219770263671875,-1.3787474370390176,-0.1621982485167682,-0.15859036021791398
1761139728568829200,0.2298291015625,-1.4573609550267457,-0.19213176061809062,-0.12370426721051335
1761139728578888200,0.23988818359375,-1.5522335338979958,-0.22644947915300725,-0.30509193097427484
1761139728588947200,0.249947265625,-1.5011176791667937,-0.2849061981663108,-0.3285243175532669
1761139728599006200,0.260006103515625,-1.3793459874540566,-0.4114904047273099,-0.25394641175717114
1761139728609065200,0.270065185546875,-1.2573112608909607,-0.5201693906329572,-0.25951193692982194
1761139728619124200,0.280124267578125,-1.0333651428610087,-0.48455286445915696,-0.35978695936650035
1761139728629183200,0.290183349609375,-0.7782178308814763,-0.6475808417983353,-0.4292523444544524
1761139728639242200,0.3002421875,-0.6024450843900442,-0.845298001333326,-0.37775961923487483
1761139728649301200,0.31030126953125,-0.5185422278225421,-0.7810866643160581,-0.2543889678929001
1761139728659360300,0.3203603515625,-0.4038549414128065,-0.6116279232770204,-0.18349398839324713
1761139728669419300,0.330419189453125,-0.20707973890304565,-0.40897725286260245,-0.2268791027419269
1761139728679478300,0.340478271484375,-0.12829203339219092,-0.21505407878309488,-0.35128596526384354
1761139728689537300,0.350537353515625,-0.29346096828281876,-0.07603197706192731,-0.2924887622497976
1761139728699596300,0.36059619140625,-0.6376672044187783,0.050564650589227676,-0.02700213482454419
1761139728709655300,0.3706552734375,-0.7948480631649494,0.24422873534113168,0.2968167084515095
1761139728719714000,0.380714111328125,-0.7096709488779306,0.3897976283572614,0.5789924587406218
1761139728729773300,0.390773193359375,-0.3337888870179653,0.41494288326874373,0.7245745034992694
1761139728739832000,0.40083203125,0.08923428072333335,0.37912279734686016,0.7209649346999824
1761139728749891300,0.410891357421875,0.36841596376299857,0.45969665562212464,0.5148628086574375
1761139728759950000,0.4209501953125,0.4789309329241514,0.5469157971307635,0.23759791902452707
1761139728770009300,0.43100927734375,0.4614186571091413,0.6021621757954359,-0.04753346619978547
1761139728780068000,0.441068115234375,0.18235446296930313,0.7421148363649844,-0.2770665905818343
1761139728790127400,0.45112744140625,-0.41182489737868305,0.9566849310234189,-0.340430809250474
1761139728800186000,0.46118603515625,-0.9008142829805612,1.1499936264663935,-0.22951040109358728
1761139728810245400,0.471245361328125,-1.0492068551152944,1.410332369609177,0.08496858610287308
1761139728820304100,0.48130419921875,-0.9130237762123345,1.6295082044973968,0.4910226449951529
1761139728830363400,0.49136328125,-0.5204506917923689,1.7555615190520881,0.9061499449200928
1761139728840422100,0.501422119140625,0.03902092778980732,1.691306489023566,1.1774851522430776
1761139728850481200,0.511481201171875,0.6011258184850216,1.424663092778623,1.2658815208375453
1761139728860540200,0.5215400390625,1.161305878597498,1.1549322519123553,1.2914800724744795
1761139728870599200,0.53159912109375,1.6947124980747699,0.8191451768144965,1.3222365913964806
1761139728880658200,0.541658203125,1.9777292292326687,0.47248628682941196,1.2925062006518244
1761139728890717200,0.55171728515625,2.041836667484045,0.22074907555431125,1.2835067555077373
1761139728900776200,0.561776123046875,1.9947557673573493,0.14875672927200792,1.2800550076186656
1761139728910835200,0.571835205078125,1.9283260236382482,0.14230068500041962,1.2576485300213098
1761139728920894200,0.581894287109375,1.8973691598385571,0.19449761296659707,1.2971177861005068
1761139728930953200,0.591953125,1.9980244137644767,0.26788229039013384,1.369410576634109
1761139728941012200,0.60201220703125,2.10333480001986,0.26074410907328127,1.419040284460783
1761139728951071200,0.6120712890625,2.0476000533163545,0.20954642127752302,1.298872228552401
1761139728961130200,0.622130126953125,1.8253560630291699,0.1421630300953984,1.0614048040397464
1761139728971189200,0.632189208984375,1.4702975934892892,0.13018851466327905,0.731283280422911
1761139728981248300,0.642248291015625,0.9734668467372656,0.08205985904932021,0.4482344736263156
1761139728991307300,0.652307373046875,0.4643161321163177,0.0015825930163264274,0.18233846168257295
1761139729001366000,0.662365966796875,-0.010979659175872802,-0.08821984298378228,0.009628098436444998
1761139729011425300,0.67242529296875,-0.39786534560918807,-0.06608399902135133,0.09612499008513986
1761139729021484000,0.682484130859375,-0.6113531979888677,0.08922142124176025,0.29541992033086717
1761139729031543300,0.692543212890625,-0.7710211973756551,0.19732728343456982,0.5512666127514094
1761139729041602000,0.70260205078125,-0.6815326496303081,0.3017871903404593,0.7872484018161893
1761139729051661300,0.712661376953125,-0.3808674490571022,0.3139319477729499,0.9218582400530576
1761139729061720000,0.722719970703125,0.059495560541748996,0.21232363090589643,0.953976548847556
1761139729071779300,0.732779296875,0.48254386272430416,0.011552198366820811,0.9353227017819881
1761139729081838000,0.742838134765625,0.7905483201444149,-0.21201777982711792,0.8398739304579794
1761139729091897300,0.7528974609375,0.9045943860411644,-0.41038609674721954,0.7156183860402554
1761139729101956000,0.7629560546875,0.9540501986056565,-0.4617169094033539,0.5311852901659906
1761139729112015400,0.773015380859375,0.970575216948986,-0.45203664238825436,0.45525450845621523
1761139729122074000,0.78307421875,0.962248118108511,-0.4836605917945504,0.4448613439314067
1761139729132133000,0.793133056640625,0.9150660956948995,-0.4850913552500307,0.4203307137869298
1761139729142192000,0.803192138671875,0.7369201903313398,-0.3750105397224426,0.40052185146734115
1761139729152251100,0.813251220703125,0.5947065990924835,-0.2879085948526859,0.42808841524161395
1761139729162310100,0.82331005859375,0.35811201189160347,-0.1981149266809225,0.563217308916524
1761139729172369200,0.833369140625,0.22084756749272344,-0.07578443204164505,0.7196891426105052
1761139729182428200,0.84342822265625,0.23856968666613101,0.07978489985466003,0.8738271265294403
1761139729192487000,0.85348681640625,0.34519933882653714,0.09947262001261115,0.8561188166856766
1761139729202546200,0.863546142578125,0.4496732742577791,-0.17344444967433809,0.8157137410610914
1761139729212605000,0.87360498046875,0.4745557865798473,-0.5093132117062806,0.6411898986522108
1761139729222664200,0.883664306640625,0.4184136281192302,-0.7579973190210759,0.39858438059873874
1761139729232723000,0.893722900390625,0.35769524778425693,-0.8315873097583651,0.14211327266953885
1761139729242782200,0.9037822265625,0.3666483695685863,-0.925023279955238,-0.07438932442143559
1761139729252841000,0.913841064453125,0.4213338994801044,-1.0227380965150892,-0.08585815535373985
1761139729262900200,0.923900146484375,0.5279764111220836,-1.0662950602993368,0.02442019203994423
1761139729272959000,0.933958984375,0.6203472363054752,-1.053907287891209,0.22451401757840067
1761139729283018200,0.944018310546875,0.6164566586077213,-0.9777617674522101,0.3798091356432065
1761139729293077000,0.954076904296875,0.4726823939234018,-0.8386459960982203,0.43107097471635786
1761139729303136000,0.964135986328125,0.14445172555446623,-0.876077316609025,0.3914029446620494
1761139729313195000,0.974195068359375,-0.07040215448141098,-0.8246167400933802,0.2565670973832719
1761139729323254000,0.98425390625,-0.22514321886003016,-0.7763549596190452,0.14399265667535363
1761139729333313000,0.99431298828125,-0.23392624477446078,-0.7421648129865527,0.0729531724047847
1761139729343372000,1.0043720703125,-0.1961065094679594,-0.6224370481915772,0.025854129266622474
1761139729353431000,1.01443115234375,-0.07923895640969277,-0.45502325698360796,0.0905299191575963
1761139729363490000,1.024489990234375,0.13806407034397125,-0.3615330723814666,0.30845662163440135
1761139729373549000,1.034549072265625,0.3973129724234342,-0.37383901172503825,0.5460777754040435
1761139729383608000,1.044608154296875,0.5065571909964084,-0.4588678035825491,0.737897218669951
1761139729393667000,1.0546669921875,0.4049006510734558,-0.500369734533131,0.793407582033053
1761139729403726000,1.06472607421875,0.234099263253808,-0.4756652091264724,0.7699960921116172
1761139729413785000,1.07478515625,-0.017456161713600156,-0.4629049501441419,0.6785664933010935
1761139729423844000,1.084843994140625,-0.36009529466331003,-0.5219887150146066,0.6546880434550345
1761139729433903000,1.094903076171875,-0.7777987286865711,-0.6613003012016415,0.7250083648718894
1761139729443962000,1.104962158203125,-1.1837608715116976,-0.7474062207713723,0.6159707017216831
1761139729454020900,1.115020751953125,-1.3329250125408172,-0.6518113189749419,0.4473448313102126
1761139729464080100,1.125080078125,-1.1404518911391497,-0.5598058199726045,0.5211929249944165
1761139729474140000,1.135139892578125,-0.8188678211778402,-0.5452870268851518,0.7110768701530993
1761139729484198100,1.1451982421875,-0.6806669727116823,-0.4111858688227832,0.782669768789038
1761139729494257000,1.1552568359375,-0.7363309922665358,-0.16303279964476822,0.6942748614992946
1761139729504316200,1.165316162109375,-0.9864917480051517,-0.013418430630117655,0.50630957291089
1761139729514375000,1.175375,-1.5873592078149317,0.1362695150773972,0.12758209502454845
1761139729524434200,1.18543408203125,-2.3498604141265154,0.3906774068664759,-0.31503866690583526
1761139729534493000,1.195492919921875,-2.9782080015361307,0.5362789600431919,-0.5779888346560299
1761139729544553000,1.205552978515625,-3.540861758285761,0.5977527618553489,-0.8072865428470075
1761139729554612000,1.215612060546875,-3.7667028962820766,0.7457984202485531,-0.9014800534129143
1761139729564671000,1.2256708984375,-3.5156665267527103,0.8659757554419338,-0.7027607310980558
1761139729574730000,1.23572998046875,-3.1448236281037327,0.9727727269932627,-0.3066585592364892
1761139729584789000,1.2457890625,-2.5841823802202937,1.0839276745583861,0.029376435340987515
1761139729594848000,1.255847900390625,-2.033223737439513,0.93216263031587,0.37586916584577407
1761139729604907000,1.265906982421875,-1.5074123953968286,0.6858541660912334,0.701518329821527
1761139729614966000,1.275966064453125,-1.0536568202614784,0.4651017660686746,0.7624787022188305
1761139729625025000,1.28602490234375,-0.5540712218433618,0.30446331421453504,0.5861421478321776
1761139729635084000,1.296083984375,-0.04867722940742969,0.20743775856047866,0.41283436668217177
1761139729645143000,1.30614306640625,0.3186170368492603,0.09711177263278513,0.26625892697200176
1761139729655201800,1.316201904296875,0.6155640936821699,-0.007164302138797938,-0.0686362407874316
1761139729665261000,1.326260986328125,0.8692652985066175,-0.07181618599779903,-0.3828950824271887
1761139729675319800,1.33631982421875,1.0828460898667573,-0.18641860713567585,-0.5894271243195981
1761139729685379000,1.346379150390625,1.3009130867302416,-0.28687442949935793,-0.7472212195932865
1761139729695437800,1.356437744140625,1.4491758950054645,-0.3372384429499507,-0.8454312723241746
1761139729705497000,1.3664970703125,1.4946446837604046,-0.27544914544783533,-0.9623535512443632
1761139729715555800,1.376555908203125,1.4042045343786478,-0.11873568501770496,-1.0527191010199486
1761139729725615000,1.386614990234375,1.1626192992836237,0.17331169014014303,-1.0314712188731878
1761139729735674000,1.396674072265625,0.921417510548234,0.47385720985643565,-0.9714932085767388
1761139729745733000,1.406733154296875,0.6052496204167604,0.6464968459539115,-0.773399324683845
1761139729755792100,1.416792236328125,0.15730419286489486,0.8037736393552273,-0.4283349373485893
1761139729765851100,1.42685107421875,-0.22623393670618533,1.0121217907588929,-0.13783789690528064
1761139729775910100,1.43691015625,-0.44902971565723415,1.2283116686388849,0.1471039205636829
1761139729785969000,1.446968994140625,-0.49673897681534285,1.4018210002429783,0.3683900256041437
1761139729796028200,1.457028076171875,-0.31671558714210984,1.4703034387081861,0.560375400021486
1761139729806087000,1.4670869140625,0.04292436496913433,1.425224526053667,0.6286972045648843
1761139729816146200,1.477146240234375,0.5743558849811553,1.232905864561349,0.6584254764176904
1761139729826205000,1.487204833984375,1.082887590920925,0.9211267109081148,0.6718469027224928
1761139729836264200,1.49726416015625,1.3375602711260317,0.5407914690315723,0.5817521327123045
1761139729846323000,1.507322998046875,1.4035650674313307,0.25968480927869675,0.3089712931582704
1761139729856382200,1.51738232421875,1.460137434002757,0.2305953467860818,0.047580597843718715
1761139729866441000,1.52744091796875,1.595918946367502,0.31023119355887174,-0.05950557961226441
1761139729876500200,1.537500244140625,1.5959943496912716,0.30280118968859315,0.026926676701847462
1761139729886559000,1.54755908203125,1.3864233784943818,0.26570041630640623,0.07162345817098394
1761139729896618200,1.5576181640625,1.0641998415857552,0.29747809496968985,0.03290184212131426
1761139729906677000,1.567677001953125,0.8191326095938682,0.3813860661037266,-0.014497088145720772
1761139729916736000,1.577736083984375,0.6554460222154855,0.4847396192029118,0.0487302062702598
1761139729926795000,1.587794921875,0.6129582950979471,0.5384498743414878,0.08847781806653365
1761139729936854000,1.59785400390625,0.4528144948929548,0.4355560477085411,0.037473607016261665
1761139729946913000,1.6079130859375,0.2377548631519079,0.2468766195014119,-0.07896066919127478
1761139729956972000,1.617971923828125,0.27464287056624886,0.24772271493673323,-0.20840013731922954
1761139729967031000,1.628031005859375,0.4984183082044124,0.34846593940705056,-0.22156715047154574
1761139729977090000,1.638090087890625,0.8068091345936059,0.4200289543613791,-0.21182287830952554
1761139729987149000,1.648149169921875,1.0728940201729535,0.44929830346554517,-0.19629753852803258
1761139729997208000,1.6582080078125,1.1817986315280198,0.3493123271033168,-0.23977414881875736
1761139730007267000,1.66826708984375,1.0424912831246853,0.11364946779459714,-0.3222959810903296
1761139730017326000,1.678326171875,0.754564568093419,-0.11922551436126232,-0.5461965794781223
1761139730027385000,1.688385009765625,0.5133388139605521,-0.24070319156348705,-0.7547971347402781
1761139730037444000,1.698444091796875,0.365240840858221,-0.34356969179809094,-0.8218015365421771
1761139730047503000,1.708503173828125,0.34375907689034935,-0.46226343737021086,-0.7981155405282974
1761139730057562000,1.71856201171875,0.3387555695146322,-0.594179652608931,-0.7042763232927769
1761139730067621000,1.72862109375,0.30139994458854197,-0.6940069312781095,-0.6499560464970767
1761139730077680000,1.73868017578125,0.1622346350044012,-0.7622336414165795,-0.6580775397628545
1761139730087739000,1.74873876953125,-0.0374532400816679,-0.8680363412335514,-0.6567496521599591
1761139730097798100,1.758798095703125,-0.19121873742640016,-0.9454597726538777,-0.6265672067988663
1761139730107857000,1.76885693359375,-0.29906127250790593,-0.9022187429510057,-0.5587417709376663
1761139730117916200,1.778916259765625,-0.3533610179722309,-0.7797503011457622,-0.5797686307448894
1761139730127975000,1.788974853515625,-0.3688619539648294,-0.737005530527234,-0.5907429196259006
1761139730138034200,1.7990341796875,-0.3671779464006424,-0.7394925250373781,-0.5640824013132602
1761139730148093000,1.809093017578125,-0.39102059428095814,-0.7267448332756757,-0.5784711748128757
1761139730158152200,1.819152099609375,-0.39039398681521414,-0.703177056813985,-0.6090467476774006
1761139730168211000,1.8292109375,-0.30112638834416866,-0.6403611196778715,-0.5687105725705623
1761139730178270200,1.839270263671875,-0.1502045899927616,-0.5788242625668645,-0.5552127565613016
1761139730188329700,1.849329833984375,-0.07752747631669044,-0.4843944590270519,-0.6550877833623439
1761139730198388500,1.859388427734375,-0.11099193902313709,-0.4813268881499767,-0.75057864026241
1761139730208447700,1.86944775390625,-0.26859657613933086,-0.5393668430559336,-0.7700397851228713
1761139730218506500,1.879506591796875,-0.5373877980679274,-0.6933668798089027,-0.7914667501635849
1761139730228565800,1.889565673828125,-0.705613782441616,-0.8563083479084074,-0.8973108049042522
1761139730238624500,1.89962451171875,-0.6378799703866243,-0.8413780514106154,-1.0167338145989924
1761139730248683800,1.909683837890625,-0.40511692417263984,-0.6536367808364332,-1.024552306330204
1761139730258742800,1.91974267578125,-0.17618775703310965,-0.46432285411804913,-0.8106181714877486
1761139730268801800,1.9298017578125,-0.13318798874020576,-0.45376945753023024,-0.3504265354229137
1761139730278860800,1.93986083984375,-0.021392916640639303,-0.5741403425343334,0.24240572116505354
1761139730288919800,1.949919921875,0.32044542132019993,-0.5651686621800065,0.7767468815460801
1761139730298978800,1.959978759765625,0.6342565191924572,-0.5353118685767054,1.1382920096915214
1761139730309037600,1.97003759765625,0.9234200825423001,-0.6870240866534412,1.2026499886378645
1761139730319096800,1.980096923828125,1.2987386653006077,-1.0378593855403364,0.823099029006809
1761139730329155600,1.990155517578125,1.6960820328623056,-1.2861748056732116,0.09815882486714982
1761139730339214800,2.00021484375,2.0532360133767127,-1.196195259540528,-0.4139458350554108
1761139730349273600,2.010273681640625,1.9434896905004977,-1.0637485906869173,-0.7022948671519756
1761139730359332900,2.020332763671875,0.9222083686649799,-0.8236550554543733,-0.8449427581548691
1761139730369391600,2.0303916015625,-0.7574030063897371,-0.39388708962798114,-0.9512083993084728
1761139730379451000,2.040450927734375,-2.5096195989280936,0.2939079813979566,-1.097920763271302
1761139730389509600,2.050509521484375,-3.819618493911624,0.9488700194887816,-0.8914861173387616
1761139730399569000,2.06056884765625,-4.748009935125708,1.3408775789804757,-0.40522984649520366
1761139730409627600,2.070627685546875,-4.935139941933751,1.6683868012070655,0.3587118409482762
1761139730419687000,2.08068701171875,-4.5269542778402565,1.9478570919297635,1.1412392421245574
1761139730429745700,2.09074560546875,-3.7720705607950684,2.090878930811584,1.8549325783863662
1761139730439804700,2.1008046875,-2.816427540040016,2.0638436243698,2.373109772288799
1761139730449863700,2.11086376953125,-1.62585640399158,1.93992776023522,2.5774060179531575
1761139730459922700,2.120922607421875,-0.5379010082870721,1.7291785390391945,2.518609837852418
1761139730469981700,2.130981689453125,0.1908995884746313,1.3616187537141144,2.378365208598971
1761139730480040700,2.141040771484375,0.582325840947032,1.0763407996259629,2.0727514457076786
1761139730490099700,2.151099609375,0.7976748110234737,1.0264435269042849,1.5490085805021225
1761139730500158700,2.16115869140625,0.8987509207099675,1.018380924218893,1.1280946599997579
1761139730510217700,2.1712177734375,0.8933049302637577,0.907412950593233,0.9533268527671694
1761139730520276700,2.18127685546875,0.7758826659321785,0.7100307221010327,0.8662962195679544
1761139730530335700,2.191335693359375,0.6409861197084188,0.5827350062698126,0.8288114153042435
1761139730540394800,2.201394775390625,0.6256482653230429,0.6220812204912305,0.8653327813632786
1761139730550453800,2.211453857421875,0.6624865883767604,0.7364987500488758,0.9821039613749831
1761139730560512800,2.2215126953125,0.5566378574609756,0.8166068905085325,1.0584339715354143
1761139730570571800,2.23157177734375,0.24720015236735343,0.8612918354094028,1.0977497906185687
1761139730580630800,2.241630859375,-0.11447393592000008,0.9483280215665697,1.0383604669302702
1761139730590689500,2.251689453125,-0.32733342726826664,1.0858630996003746,1.0215805970430374
1761139730600748800,2.261748779296875,-0.28511574926376343,1.187967675551772,1.0574414533667267
1761139730610807600,2.2718076171875,-0.03432254084050655,1.1615142606511712,1.1051054871436208
1761139730620866800,2.28186669921875,0.26838322564959527,1.0458967076539993,1.1081270269218833
1761139730630925600,2.291925537109375,0.5572112734347582,0.9828323487147689,1.075547822617367
1761139730640984800,2.30198486328125,0.7470458630263805,0.9435805347785353,1.0175913082111627
1761139730651043600,2.312043701171875,0.8467419165313244,0.8285843285501002,0.9715149820171296
1761139730661102800,2.322102783203125,0.7861439477056265,0.6124515146195888,0.8741627151593565
1761139730671161600,2.33216162109375,0.6302268252849579,0.42080812204033136,0.6395542602743953
1761139730681220900,2.342220947265625,0.4617208549261093,0.38711511127501724,0.34217655693925914
1761139730691279600,2.352279541015625,0.4354992029547691,0.38559243175238367,0.10050934264920651
1761139730701339000,2.3623388671875,0.5224228686481714,0.33695319626778364,0.11752397114038467
1761139730711397600,2.372397705078125,0.6364952380299568,0.2882610615521669,0.20149331707283855
1761139730721456600,2.38245654296875,0.7275906364500522,0.2309337849602103,0.283337341414392
1761139730731515600,2.392515625,0.7264893972098827,0.16465046397447586,0.3645136956274509
1761139730741574700,2.40257470703125,0.7279869422912597,0.15076806909441948,0.40650099894218145
1761139730751633700,2.412633544921875,0.7502583953320979,0.22381197025626898,0.4923820237148553
1761139730761692700,2.422692626953125,0.6663081924915313,0.23201047428101298,0.561503856062144
1761139730771751700,2.432751708984375,0.5365846649914979,0.30033114631325003,0.5712415523529052
1761139730781810700,2.442810791015625,0.47231706774234766,0.35701369526088234,0.537224095406197
1761139730791869700,2.45286962890625,0.48300738858282566,0.3753337803274393,0.5853309410471469
1761139730801928700,2.4629287109375,0.4337082278847694,0.3703860947921872,0.6786589208249002
1761139730811987700,2.47298779296875,0.3716875327795744,0.3826870656996965,0.7364253194864839
1761139730822046700,2.483046630859375,0.432092024859786,0.43717152008116245,0.8026747382026165
1761139730832105700,2.493105712890625,0.5349801524043083,0.42041210846006866,0.8638459768716246
1761139730842164700,2.503164794921875,0.6930161666750907,0.45824996394515033,0.8596246328495443
1761139730852223700,2.5132236328125,0.8622451906114816,0.48025049109011886,0.7791217939838767
1761139730862282800,2.52328271484375,0.9399228890538215,0.39896044736951586,0.6304076617445796
1761139730872341800,2.533341796875,1.0770780278593302,0.3098994773864746,0.5132640682239085
1761139730882400800,2.54340087890625,1.0781623159646987,0.2380310497447848,0.41489440448451786
1761139730892459500,2.55345947265625,0.8860504290908574,0.14784429060220716,0.3186681459819898
1761139730902518800,2.563518798828125,0.6831453455239535,0.28421412424892184,0.29705893797585736
1761139730912577500,2.57357763671875,0.45701720727980133,0.4784145078346133,0.33947504289560015
1761139730922636800,2.58363671875,0.3273538855344057,0.6431590798333287,0.5063065772362053
1761139730932695600,2.593695556640625,0.2891208932518959,0.75461410632357,0.7695928450729698
1761139730942754800,2.6037548828125,0.2894260136783123,0.6627855713233352,1.2889770036123693
1761139730952813600,2.6138134765625,0.18853636647462843,0.6165032742284238,1.7129272230707109
1761139730962872800,2.623872802734375,0.17152151878774166,0.8820628207594156,1.640486256238073
1761139730972931600,2.633931640625,0.02408347089886665,0.9838744051136076,1.560528776295483
1761139730982990800,2.643990966796875,-0.20564882931709288,0.8933104832217097,1.3287344289831817
1761139730993049600,2.654049560546875,-0.0777647922039032,0.5542769735485314,0.9280549758013338
1761139731003108900,2.66410888671875,0.03480360235571861,0.10746098841801285,0.526366345576942
1761139731013167600,2.674167724609375,0.0049731122374534606,-0.4137693094447255,0.11057977802567183
1761139731023226600,2.6842265625,0.0031797990798950195,-0.9374602983325719,-0.2602807658778503
1761139731033285600,2.69428564453125,-0.09301847543716431,-1.3080901387527584,-0.39762094239406287
1761139731043344600,2.7043447265625,-0.25676760665774345,-1.6268208651095628,-0.4929100661769509
1761139731053403600,2.714403564453125,-0.37122692953050135,-1.7783656176649032,-0.4601918917931616
1761139731063462700,2.724462646484375,-0.42365094425082206,-1.7854658050589263,-0.5013754044443368
1761139731073521700,2.734521728515625,-0.4852455228984356,-1.7217602256067097,-0.5823846584621817
1761139731083580700,2.74458056640625,-0.4871218381643295,-1.7008651754856108,-0.548881398115307
1761139731093639700,2.7546396484375,-0.47626668215095996,-1.7117457582011817,-0.5178235216265544
1761139731103698700,2.76469873046875,-0.4095931928038597,-1.7062041984260081,-0.39021234663799403
1761139731113757700,2.7747578125,-0.4443441881895065,-1.6307576200366019,-0.22047382054319603
1761139731123816700,2.784816650390625,-0.5034498726308345,-1.5058410544268785,-0.10529370911521836
1761139731133875700,2.794875732421875,-0.6033575230598449,-1.4057918035700916,0.03087895799158141
1761139731143934700,2.804934814453125,-0.7073357839286327,-1.3249734690144657,0.19080931637529283
1761139731153993700,2.81499365234375,-0.8368786941647529,-1.4053450827158986,0.43977680720873175
1761139731164052700,2.825052734375,-0.9589011457681655,-1.7391737172223627,0.8748543506853282
1761139731174111500,2.835111572265625,-0.7150865441858768,-1.9941139623224735,1.1331639260880648
1761139731184170800,2.845170654296875,-0.14757014983594416,-1.970739662606269,1.2645989336811005
1761139731194229800,2.855229736328125,0.31454642640948294,-1.9385794143661856,1.4208616546690462
1761139731204288800,2.865288818359375,0.5204939464122057,-1.9424815363712609,1.6408358003281056
1761139731214347800,2.87534765625,0.5832797806710004,-1.8658876876428723,1.8236771700315177
1761139731224406800,2.88540673828125,0.5360147561490536,-1.5554675473831594,1.8157541219472884
1761139731234465800,2.8954658203125,0.3543962062388658,-1.1133438117220997,1.6223621321350334
1761139731244524800,2.90552490234375,-0.08566635910868645,-0.6538607988506555,1.494617795753479
1761139731254583800,2.915583740234375,-0.7070230647176504,-0.3822051274016499,1.5344837960653006
1761139731264642800,2.925642822265625,-1.3835522069722412,-0.2519067226231098,1.4557888834044337
1761139731274701800,2.935701904296875,-2.086522196906805,-0.08458762396126986,1.2710092391148209
1761139731284760800,2.9457607421875,-2.7658587977975606,0.12283975933566689,1.0008200600218027
1761139731294819800,2.95581982421875,-3.1980326557219025,0.21958967638611793,1.0003319111786781
1761139731304878600,2.965878662109375,-3.3280519512981175,0.3569889992110431,1.359833769993484
1761139731314937900,2.975937744140625,-3.193787273237109,0.5631769038408995,1.7168004112422466
1761139731324996600,2.98599658203125,-2.939630141338706,0.7117014317922293,2.1968138787060973
1761139731335056000,2.996055908203125,-2.4030548286974427,1.0283398620449007,2.6461086750403044
1761139731345114600,3.006114501953125,-1.8089087860971689,1.4505208798736333,2.9355051703631876
1761139731355174000,3.016173828125,-1.3210878597527742,1.8377026266440748,3.142154701155424
1761139731365232600,3.026232666015625,-0.9360200363963842,2.1870897725492715,3.4214620564013716
1761139731375292000,3.0362919921875,-0.48327276152074333,2.707636325931549,3.4252228702396152
1761139731385350700,3.0463505859375,-0.043080432313680646,2.9842139639526604,3.043827890177071
1761139731395410000,3.056409912109375,0.24143910462260246,2.822550406834483,2.4837074512973425
1761139731405468700,3.06646875,0.5251239443004131,2.561226159785688,1.6954440272197127
1761139731415528000,3.07652783203125,0.7713099511891603,2.121533596794307,0.7185445026200264
1761139731425586700,3.086586669921875,0.8617442553520203,1.629536699939519,-0.05612038502022624
1761139731435645700,3.096645751953125,0.5003320328712463,0.8277741812109947,-0.5955782673604786
1761139731445704700,3.10670458984375,-0.3004202859014273,0.11169636096544563,-0.7392337279707193
1761139731455763700,3.116763671875,-1.0089350504815577,-0.07723795531820506,-0.615825082705915
1761139731465822700,3.12682275390625,-1.462698224401474,0.15179121073023416,-0.4704292081691324
1761139731475881700,3.1368818359375,-1.8275930283010005,0.5266114794444292,-0.3816385795600712
1761139731485940700,3.146940673828125,-2.093557502371073,0.9583383973188698,-0.28672815289646386
1761139731495999700,3.156999755859375,-2.112020795300603,1.394028592801094,-0.3609175708316266
1761139731506058800,3.167058837890625,-1.5231675984114408,1.7204837759301066,-0.2364221532434225
1761139731516117800,3.17711767578125,-0.573653289669752,1.8860367417022585,0.3582170797012746
1761139731526176800,3.1871767578125,0.09608312370479107,2.2912086109325287,0.6295477569796145
1761139731536235800,3.19723583984375,0.745455963486433,2.674268017075956,0.7460613820336759
1761139731546294800,3.207294677734375,1.4728507851034403,2.670256151086092,0.8554882636971771
1761139731556353800,3.217353759765625,1.9744418781250714,2.489563191588223,0.6206923964813351
1761139731566412800,3.227412841796875,2.7617110304683443,2.526357383239269,0.4109367163673043
1761139731576471800,3.237471923828125,3.193800717240572,2.2737489420875905,0.4561056453928351
1761139731586530600,3.247530517578125,3.5434172879874706,1.630670964666456,0.43818303521126506
1761139731596589800,3.25758984375,3.5567537394225597,1.1092108035705983,0.10876754097193479
1761139731606648600,3.267648681640625,3.35829745195806,0.6618022593744098,-0.33117139799594875
1761139731616707800,3.277707763671875,3.182563868433237,0.36120530173182486,-0.6542074203312397
1761139731626766600,3.2877666015625,3.0231548122435807,0.22303031835928558,-0.8477724286228417
1761139731636825900,3.297825927734375,2.845525039708614,0.3636502106659114,-1.0228113078817724
1761139731646884600,3.307884521484375,2.6320032850593327,0.5057458746135235,-1.0703890516147017
1761139731656943900,3.31794384765625,2.350505726292729,0.5081846460677683,-0.8754881185442209
1761139731667002600,3.328002685546875,2.115481749409437,0.5354613600499928,-0.5731149450093508
1761139731677062000,3.338061767578125,1.924557611015439,0.6420343135870993,-0.4671797048538923
1761139731687120600,3.34812060546875,1.8504039950460194,0.7046515132807195,-0.484181693059206
1761139731697180000,3.358179931640625,1.7839532085388898,0.6898518574252724,-0.5329121139585972
1761139731707238700,3.36823876953125,1.6558593280673026,0.5874098662130535,-0.6370490725204349
1761139731717298000,3.3782978515625,1.4035399329900742,0.3802399648085236,-0.8132423825114965
1761139731727356700,3.388356689453125,1.1992559622853993,0.2020432060405612,-0.9644470894575119
1761139731737415700,3.398415771484375,1.01543961006999,0.10721395485438406,-1.0236468819230795
1761139731747474700,3.408474609375,0.7707850505322218,0.1434719207368791,-1.020855789899826
1761139731757533700,3.41853369140625,0.5586410139769316,0.21352774599865076,-1.012972343173623
1761139731767592700,3.4285927734375,0.4401256937116384,0.2455716013174504,-1.0751847614586352
1761139731777651700,3.438651611328125,0.3103483901977539,0.30030031278356906,-1.1424462798267603
1761139731787710700,3.448710693359375,0.09806523743271828,0.34558592699132856,-1.143776359386742
1761139731797769700,3.458769775390625,-0.17432897742390632,0.22887444127760825,-0.9370891269326209
1761139731807828700,3.468828857421875,-0.510987282398343,0.07687193501740694,-0.7878744247600435
1761139731817887700,3.4788876953125,-0.7701689644604921,-0.03187938547208905,-0.7737734186932445
1761139731827946800,3.48894677734375,-0.9757166714906692,-0.10443396874703466,-0.894020385056734
1761139731838005800,3.499005859375,-1.1284171699523926,-0.20145978012941776,-1.0215519554704426
1761139731848064800,3.509064697265625,-1.2208300807118415,-0.348057139410451,-1.030307508856058
1761139731858123800,3.519123779296875,-1.4842273346424102,-0.5957031358491629,-0.9331973801910877
1761139731868182800,3.529182861328125,-1.788507218581438,-0.7843887015361338,-0.9180682001203299
1761139731878241800,3.53924169921875,-2.015459532690048,-0.846608718605712,-1.002241398061812
1761139731888300500,3.549300537109375,-2.124986075335741,-0.7900722270652651,-1.0866367143213749
1761139731898359800,3.55935986328125,-2.1898218278616666,-0.7799423165865242,-1.1504933926820755
1761139731908418800,3.569418701171875,-2.2358839063346383,-0.8099438524227589,-1.1266489912360906
1761139731918477800,3.579477783203125,-2.261315869233012,-0.8016404267188161,-1.0534650970816613
1761139731928536800,3.589536865234375,-2.2430612506181,-0.7570139340069144,-0.9787471252277493
1761139731938595800,3.599595947265625,-2.241200132921338,-0.7236823769651353,-0.8582268948808311
1761139731948654800,3.60965478515625,-2.1389748531997204,-0.6467600999999791,-0.6806086666531861
1761139731958713900,3.6197138671875,-1.9009055172711609,-0.5519853554800153,-0.45497371875345705
1761139731968772900,3.62977294921875,-1.6558762792021036,-0.4797440028727054,-0.17223711971119046
1761139731978832000,3.639831787109375,-1.4808821158677339,-0.4923235715258866,0.19392448925375938
1761139731988891000,3.649890869140625,-1.2632687079906464,-0.6036792292948812,0.5492131142877043
1761139731998950000,3.659949951171875,-0.9605600188910961,-0.7568512177258729,0.8958832563191652
1761139732009009000,3.6700087890625,-0.666679948413372,-1.0001108888391406,1.1894921086400747
1761139732019067600,3.680067626953125,-0.4715191953629255,-1.3751184328868984,1.5050529727891087
1761139732029127000,3.690126953125,-0.45006724201142784,-1.8089169694036245,1.8819445039525626
1761139732039185700,3.700185546875,-0.48752983444333076,-2.01704183344543,2.1246958602175114
1761139732049245000,3.710244873046875,-0.48638709414899345,-2.065331817100942,2.2474830125831065
1761139732059303700,3.7203037109375,-0.2533101596802473,-2.0144078316800296,2.4041148591443893
1761139732069363000,3.730363037109375,0.02404606149792671,-1.9209714230917394,2.2987661867052314
1761139732079421700,3.740421630859375,0.3119984954923391,-1.8568973025880753,1.7447832276672124
1761139732089481000,3.75048095703125,0.3886678936749697,-1.878661829020083,1.163356235256046
1761139732099539700,3.760539794921875,-0.11348141775131225,-1.860787441894412,0.8838948584921658
1761139732109599000,3.770598876953125,-1.2458628151595592,-1.8116380649305879,0.8305717029750347
1761139732119657700,3.78065771484375,-2.384549450191855,-1.4878148377403615,0.8926646595988422
1761139732129717000,3.790717041015625,-3.206380212828517,-0.5604356423087418,1.249677112750709
1761139732139775700,3.800775634765625,-3.8921670127719636,0.14335004792287945,1.6786491058938204
1761139732149834800,3.810834716796875,-4.2579076198458665,0.3974672862023115,1.9027607897490262
1761139732159893800,3.820893798828125,-3.824543090832233,1.0158400075644254,1.9710048894137142
1761139732169952800,3.830952880859375,-3.04568520848155,1.69985979783535,1.7327970217972992
1761139732180011800,3.84101171875,-2.3723376188725234,2.113524185600877,1.5280802126333117
1761139732190070000,3.851070068359375,-2.1421055524408814,1.945070529951155,1.7858090655386447
1761139732200128800,3.861128662109375,-1.6112269901365042,1.7135796956300735,2.130367329982668
1761139732210188000,3.87118798828125,-1.1131944663792848,1.4280959898367522,2.5160508010193703
1761139732220246800,3.881246826171875,-0.6908475904643535,1.4549454183176158,2.3623281199030575
1761139732230305800,3.891305908203125,0.006489946541190147,1.8165908650323748,1.7390538902349768
1761139732240364800,3.90136474609375,0.897836143952608,2.2748443361088633,1.0691430701415985
1761139732250423800,3.911423828125,1.778678483006358,2.550965754795074,0.7521290115095675
1761139732260482800,3.92148291015625,2.568193368449807,2.23518218780607,1.0022110029235483
1761139732270541800,3.931541748046875,3.928659883388877,1.9319293088272214,0.33477000700980425
1761139732280600800,3.941600830078125,4.31506450830698,1.8054557230338453,-0.24080299867615101
1761139732290659800,3.951659912109375,3.609580489724874,1.2506573559597134,0.5034865513794123
1761139732300718800,3.96171875,2.111848945865035,0.9310963162586092,1.359795045418292
1761139732310777900,3.97177783203125,1.0222370151251554,1.119324055175483,2.0933231090933084
1761139732320836900,3.9818369140625,0.4901180973708629,1.3869687374174593,2.8219246761515735
1761139732330896000,3.991895751953125,0.3348082931935787,1.7964127310089766,2.323503153076768
1761139732340955000,4.001954833984375,0.522391888988018,2.160112918296456,1.5305159153476358
1761139732351014000,4.012013916015625,0.5991676701545715,2.0547230370640754,0.9903303032547235
1761139732361073000,4.022072998046875,0.47477147515714163,1.638219334219396,0.56660746281147
1761139732371132000,4.0321318359375,0.4074263701587915,1.1718594213157891,0.4810284897252917
1761139732381191000,4.04219091796875,0.4474976837843656,0.8462799981079995,0.4184071983784437
1761139732391250000,4.05225,0.5175713369637728,0.6885467661760747,0.26037410671710964
1761139732401309000,4.062308837890625,0.6113748252987862,0.6572187309764326,0.04099193560183048
1761139732411368000,4.072367919921875,0.6484370202362537,0.7499537132970988,-0.1180737139776349
1761139732421427000,4.082427001953125,0.5330015458077192,0.9363491222202778,-0.16280395932495592
1761139732431486000,4.09248583984375,0.4827841012209654,1.1711220469519494,-0.0007809212446212769
1761139732441545000,4.102544921875,0.5586556270241737,1.4756604356966911,0.24427812744081018
1761139732451604000,4.11260400390625,0.7284446229308843,1.7305336069099604,0.3176873547837138
1761139732461663000,4.1226630859375,0.8745219038605689,1.8423773404568433,0.21889643342494963
1761139732471722000,4.132721923828125,0.8801344830453395,1.770490354245156,0.08259557336121798
1761139732481781000,4.142781005859375,0.8587854055464267,1.6317570063374935,0.012938976550102232
1761139732491840000,4.152840087890625,0.8654974704056978,1.4922938828505574,-0.023588380858302116
1761139732501899000,4.16289892578125,0.8347428511798382,1.3448537891350685,-0.12820114023834467
1761139732511957800,4.172957763671875,0.7220856092929839,1.2086750941462814,-0.14914572858959435
1761139732522017000,4.18301708984375,0.5335907438725233,1.1463041242986918,-0.12083996382057666
1761139732532075800,4.19307568359375,0.4488718947470188,1.2493101791344583,-0.16633067214637995
1761139732542135000,4.203135009765625,0.5405956541985273,1.3594583608098327,-0.3024772184312343
1761139732552193800,4.21319384765625,0.6962292835026979,1.3781044629603623,-0.48211862304955716
1761139732562253000,4.223253173828125,0.9337877472996711,1.2759427499942482,-0.6346954951316118
1761139732572311800,4.233311767578125,1.2111194185584784,1.1067265855394304,-0.8409595337375998
1761139732582371000,4.24337109375,1.4346774140536784,0.9150789551764726,-1.1276210511386393
1761139732592429800,4.253429931640625,1.5608125616729258,0.711521399050206,-1.3439625393837689
1761139732602489000,4.263489013671875,1.614030357119441,0.48180195831581946,-1.4255182483032345
1761139732612547800,4.2735478515625,1.569354180046916,0.3145030256591737,-1.408014448055625
1761139732622607000,4.283607177734375,1.429099906182289,0.2202732747361064,-1.3584066597998141
1761139732632665900,4.293665771484375,1.2418231843799352,0.17277897150292992,-1.414514039207995
1761139732642724900,4.303724853515625,1.0776485212236642,0.11036109377369284,-1.5463839310869574
1761139732652783900,4.313783935546875,0.958971288394928,-0.013969196380674839,-1.6623621340900658
1761139732662843000,4.3238427734375,0.9042226301193237,-0.19302797880545258,-1.681418716737628
1761139732672902000,4.33390185546875,0.8562228615820408,-0.4287655107855797,-1.5623428399801254
1761139732682961000,4.3439609375,0.7742261308968067,-0.6564538840837776,-1.5027908730760215
1761139732693020000,4.35402001953125,0.757390146908164,-0.7954813926324248,-1.4978615999802947
1761139732703079000,4.364078857421875,0.8449024261444806,-0.9013799540393054,-1.3856503482952713
1761139732713138000,4.374137939453125,0.9569266308248042,-1.0360581813372671,-1.1110630073085426
1761139732723197000,4.384197021484375,0.9555044890671968,-1.2278807298757135,-0.6997840533748269
1761139732733256000,4.394255859375,0.8463438571244478,-1.3874597358047962,-0.368346113397181
1761139732743315000,4.40431494140625,0.6361193904548883,-1.410486975648999,-0.16656448090225456
1761139732753374000,4.4143740234375,0.25288930391967296,-1.3730647152274846,-0.010239362202584743
1761139732763433000,4.424432861328125,-0.3221358586251736,-1.3148815524585544,0.06417991896569729
1761139732773492000,4.434491943359375,-0.9946376450598239,-1.29547060341537,0.2810650125682354
1761139732783551000,4.444551025390625,-1.533191564297676,-1.2626898851893842,0.5658645354896783
1761139732793610800,4.45461083984375,-1.9588076711416242,-1.2201546656683087,0.9022866936206817
1761139732803670000,4.464669921875,-2.2766122225642205,-1.3186362288169562,1.45837860763669
1761139732813728800,4.474728759765625,-2.563400288954377,-1.2853750335976482,1.8682025404565035
1761139732823788000,4.4847880859375,-2.7850761239647865,-1.0492788974381984,2.0570348211377856
1761139732833846800,4.4948466796875,-2.812508905291557,-0.7868997345089912,2.076434518134594
1761139732843906000,4.504906005859375,-2.643047241643071,-0.6517451218709349,1.7020383109182118
1761139732853964800,4.51496484375,-2.639876794913411,-0.5051252584971487,0.7208562136285006
1761139732864023800,4.52502392578125,-2.9340602322518823,-0.4921427350662648,-0.6195721602797508
1761139732874082800,4.535082763671875,-2.994390490052104,-1.0522338017210364,-1.3301662153519689
1761139732884141800,4.545141845703125,-2.758272872713208,-1.7339533522255717,-1.6694795648798346
1761139732894200800,4.555200927734375,-2.3696289444357155,-1.9749832915253935,-2.2454829248070713
1761139732904259800,4.565259765625,-2.2060025628119706,-1.6232298548802733,-2.93084799220711
1761139732914318800,4.57531884765625,-2.262209018680453,-0.8990298837818205,-3.6108252290889618
1761139732924377900,4.5853779296875,-2.311066865351796,0.04567892437428236,-3.484593927618861
1761139732934436900,4.595436767578125,-2.153602513489127,0.7065190607182681,-2.457645081540942
1761139732944495900,4.605495849609375,-1.9169728549748657,0.8739525795400143,-1.0574649803727865
1761139732954555000,4.615554931640625,-1.4810750080913304,0.9755606041461229,0.1329446815036237
1761139732964614000,4.62561376953125,-0.9418617481619119,1.1121269832782448,0.8295764083273708
1761139732974673000,4.6356728515625,-0.4258838178694248,1.066790004209429,1.2390738856717944
1761139732984732000,4.64573193359375,0.008200257590413092,0.9209458013832569,1.5143012781277299
1761139732994791000,4.655791015625,0.3676595924377441,0.8956129149451851,1.8705083331808448
1761139733004850000,4.665849853515625,0.6962772142976522,1.0158327010408044,2.0177569959774613
1761139733014908700,4.67590869140625,0.9895575653165578,1.0092439703002571,1.9789732379443943
1761139733024968000,4.685968017578125,1.328777829733491,0.9123878163963556,1.8594559010297058
1761139733035026700,4.696026611328125,1.585865169864893,0.679388038817048,1.7463525228105485
1761139733045086000,4.7060859375,1.670432043299079,0.2636518132135272,1.6811575815834103
1761139733055144700,4.716144775390625,1.5813158359974622,-0.09825228443741797,1.6526448960654436
1761139733065204000,4.726203857421875,1.3183528818309307,-0.3641194356128573,1.5300767932780086
1761139733075262700,4.7362626953125,0.796070298436284,-0.4570329893708229,1.3590423273548482
1761139733085322000,4.746322021484375,0.09272446092665194,-0.3250450240701437,1.0514274537742136
1761139733095380700,4.756380615234375,-0.7091554005712271,-0.09016279374510049,0.7111112108141183
1761139733105440000,4.76643994140625,-1.430539583596587,0.191379480946064,0.5588312758520245
1761139733115498800,4.776498779296875,-1.9608640191495417,0.47742374323159453,0.6475852257125079
1761139733125558000,4.78655810546875,-2.3468197312563657,0.8069248699277639,0.9334139455512166
1761139733135617000,4.796616943359375,-2.5403596051067114,1.2073720487236976,1.3287310679823159
1761139733145675800,4.80667578125,-2.5215076051205396,1.6367650437578558,1.7290838464930653
1761139733155735000,4.816735107421875,-2.3330934037208557,1.97694363181293,2.042767226332426
1761139733165793800,4.826793701171875,-1.9309569566637277,2.1507383562296627,2.1597490534201262
1761139733175853000,4.83685302734375,-1.441901520088315,2.37558872962296,2.253229301150143
1761139733185912300,4.846912353515625,-1.0066168366670607,2.4392384872347117,2.4543974779218436
1761139733195971300,4.856971435546875,-0.5359007743805646,2.388293020634353,2.4310225936837493
1761139733206030300,4.8670302734375,0.000502104303240776,2.2222674689143895,2.159631418389827
1761139733216089300,4.87708935546875,0.44917701517343517,1.870336191484332,1.8611776102557778
1761139733226148400,4.8871484375,0.8225409567326307,1.4467825701281427,1.6811236793138087
1761139733236207400,4.897207275390625,1.2948936803102493,1.1850997189000247,1.5608879649966954
1761139733246266400,4.907266357421875,1.7455998047471046,1.0831345514193176,1.3440705298028885
1761139733256325000,4.9173251953125,2.185490520659089,0.9674079850897193,1.106652643520385
1761139733266384400,4.92738427734375,2.5185107613921165,0.6933204103186726,0.9437640746518969
1761139733276443100,4.937443115234375,2.637206114399433,0.3040308776140213,0.8858910738106817
1761139733286502400,4.94750244140625,2.619962718653679,0.11364479161947964,0.7859115271892398
1761139733296561200,4.95756103515625,2.568428346249461,0.06308247911781072,0.7240639236286283
1761139733306620400,4.967620361328125,2.4818629924744364,-0.023786241517961024,0.7622045614525675
1761139733316679200,4.97767919921875,2.2105326074570417,-0.09588877017647027,0.8862535504475235
1761139733326738400,4.987738525390625,1.5734277130961418,-0.22290537680536507,0.9923423737294972
1761139733336797200,4.997797119140625,0.886916690531373,-0.12428309001177548,0.8855426987644285
1761139733346856400,5.0078564453125,0.5230944842994213,0.20322832417190073,0.7461039790663868
1761139733356915200,5.017915283203125,0.4545487713396549,0.6533603019826114,0.6653105597563087
1761139733366974500,5.027974365234375,0.656789838039875,1.0602746309660374,0.748599010752514
1761139733377033200,5.038033203125,0.9675123222470283,1.3680389960199593,0.846576496836543
1761139733387092200,5.04809228515625,1.0816372985988856,1.3551950042769312,1.0108214487500489
1761139733397151200,5.058151123046875,0.8429986383497714,1.0873445703297853,1.1210353891380131
1761139733407210200,5.068210205078125,0.4392039026916027,1.063714542286843,1.0023327296070754
1761139733417269200,5.078269287109375,-0.07333177819252014,1.0008990435421465,0.9351934493791312
1761139733427328300,5.088328369140625,-0.527947769549489,0.9848176773130893,0.8519392659787088
1761139733437387300,5.09838720703125,-0.8271201012164354,1.2138120917085558,0.5958014085918665
1761139733447446300,5.1084462890625,-1.1423533408463,1.1703891295675188,0.2955288971306756
1761139733457505300,5.11850537109375,-1.4531588271617888,1.010714408179,-0.1028348995199427
1761139733467564300,5.128564208984375,-1.7652163593649863,0.8696286519262939,-0.4323950629269704
1761139733477623300,5.138623291015625,-1.9716198064416646,0.6723528064180165,-0.7584449166581034
1761139733487682300,5.148682373046875,-2.008372789299488,0.4568104326613247,-1.2204747644681482
1761139733497741300,5.1587412109375,-1.8562316782861947,0.20280659162849188,-1.697877099585533
1761139733507800300,5.16880029296875,-1.4836188473552465,-0.14866247511729597,-1.9761865298353134
1761139733517859300,5.178859375,-1.0132762945562601,-0.5551510529693215,-2.0539333479911086
1761139733527918300,5.18891845703125,-0.4399275407910347,-0.8807255077410489,-2.0558197462596
1761139733537977300,5.198977294921875,0.03344166635274887,-1.1067482128493487,-1.9382579273268579
1761139733548036400,5.209036376953125,0.20897885052263734,-1.260923313908279,-1.7411140376351772
1761139733558095000,5.21909521484375,0.15542846212089062,-1.2970971817038952,-1.6702406123802065
1761139733568154400,5.229154296875,-0.0604319646090269,-1.1458236473053693,-1.6799688101902603
1761139733578213000,5.239213134765625,-0.24720892019569873,-1.0271213531006127,-1.482901638996601
1761139733588272400,5.2492724609375,-0.31309798116683957,-0.998903266615048,-1.1373468377958982
1761139733598331100,5.2593310546875,-0.30386545791923997,-1.0391527132865042,-0.7827596390295773
1761139733608390400,5.269390380859375,-0.25931612209677696,-1.077929822383076,-0.5392033230572939
1761139733618449200,5.27944921875,-0.09886720146536826,-1.0889605541590601,-0.4072063707325607
1761139733628508400,5.28950830078125,0.1209516075015068,-1.1375999357741327,-0.18599048138409852
1761139733638567200,5.299567138671875,0.20673604003190993,-1.2906842459216714,0.030829949484393
1761139733648626400,5.30962646484375,0.13861702805161474,-1.45295614419654,0.10368797268532216
1761139733658685200,5.319685302734375,-0.07833587009012699,-1.570146791729331,0.004719795063510537
1761139733668744400,5.329744384765625,-0.43149464348852634,-1.6870532154932618,-0.16570358975660054
1761139733678803200,5.33980322265625,-0.8285486727148293,-1.8389453201815484,-0.4020621397119015
1761139733688862200,5.3498623046875,-1.2986311132729054,-1.8956953814074395,-0.7377260998867452
1761139733698921200,5.359921142578125,-1.6800094344615935,-1.8516789834178984,-1.0124917200498282
1761139733708980200,5.369980224609375,-1.954291070500016,-1.8958061483055353,-0.9610917876802384
1761139733719039200,5.380039306640625,-2.0777818410903213,-2.1471295180827377,-0.6093835784163326
1761139733729098200,5.39009814453125,-1.9424691152811049,-2.2681318328581748,-0.3980294501297176
1761139733739157200,5.4001572265625,-1.718767327401042,-2.146001536966115,-0.3016977219587192
1761139733749216300,5.41021630859375,-1.4307581947833299,-2.01787580005154,-0.05187799821011722
1761139733759275300,5.420275146484375,-0.9785282217800617,-1.8312917366884647,0.4562542235506698
1761139733769334300,5.430334228515625,-0.4863759882330894,-1.5780650175079702,0.9295489406861365
1761139733779393500,5.4403935546875,-0.19545593660473823,-1.2660801121495664,1.2043630031008272
1761139733789452300,5.450452392578125,-0.09737783969044685,-0.8877497803546488,1.2780061122648416
1761139733799512300,5.46051220703125,-0.1331909113496542,-0.48920200543925163,1.285586045999825
1761139733809571300,5.4705712890625,-0.2526964116960764,-0.05564034641832113,1.2322459393478928
1761139733819630300,5.48063037109375,-0.5382271715015172,0.28023382244110107,1.1229548128932714
1761139733829689300,5.490689453125,-0.9091273532956838,0.6024181963831186,0.9596592706590891
1761139733839748400,5.500748291015625,-1.2155559397011995,0.9573676525905728,0.8215890628352761
1761139733849807400,5.510807373046875,-1.4707190337717533,1.1910093813352287,0.7474461874555796
1761139733859866400,5.520866455078125,-1.6206190878599882,1.3925683109901845,0.7622651325333863
1761139733869925400,5.53092529296875,-1.5115215842813252,1.6459392609469592,0.9359143840648233
1761139733879984400,5.540984375,-1.1527969934493303,1.9314552615746854,1.1545325850702821
1761139733890043100,5.551043212890625,-0.6304910291790962,2.1251107246287164,1.3902612030915915
1761139733900102400,5.561102294921875,-0.14604104057252407,2.3157710975199937,1.563665613016486
1761139733910161200,5.5711611328125,0.3143044343471527,2.5686609859615563,1.615148401363939
1761139733920220400,5.581220458984375,0.8574170398026705,2.685362827064097,1.5330984791867435
1761139733930279200,5.591279052734375,1.3702788839012383,2.4835078370720147,1.4471478963091968
1761139733940338400,5.60133837890625,1.7253905449330806,1.924697311747074,1.25794663618505
1761139733950397200,5.611397216796875,1.8539216477781533,1.2083413321472705,1.0890550275094806
1761139733960456400,5.62145654296875,1.801511661583185,0.6156849435828626,0.9657521076414733
1761139733970515200,5.63151513671875,1.818794804817438,0.2137242914840579,0.8053362855620682
1761139733980574500,5.641574462890625,1.9063924242496488,0.1302745855115354,0.6625995472319424
1761139733990633200,5.65163330078125,1.9108587560087442,0.07807707302346825,0.46337592865675686
1761139734000692500,5.6616923828125,1.8007792556554079,-0.007845598933845758,0.2620227507069707
1761139734010751200,5.671751220703125,1.5524012916803358,-0.10233443918451667,0.17913170153051614
1761139734020810200,5.681810302734375,1.1363578998237847,-0.2037546861335635,0.2909774809040129
1761139734030869200,5.691869140625,0.6922831762254238,-0.1462459154948592,0.34318829126507044
1761139734040928300,5.70192822265625,0.30464345655441283,0.025074673893302677,0.5196532578043639
1761139734050987300,5.7119873046875,-0.12141922501325607,0.2947418018735945,0.7287121878258883
1761139734061046300,5.72204638671875,-0.5302887797176837,0.688284169717133,0.9256617239892482
1761139734071105300,5.732105224609375,-0.7788444383472204,1.131565258719772,1.2384542924687265
1761139734081164300,5.742164306640625,-0.9751140294224023,1.5714721951141952,1.6527902958855032
1761139734091223300,5.752223388671875,-1.0445686739206312,2.0284686518669126,2.088580883002281
1761139734101282300,5.7622822265625,-0.7625012063115835,2.2894519765235484,2.449543900410831
1761139734111341300,5.77234130859375,-0.10229776043593883,2.303185464452207,2.6584716052681205
1761139734121400300,5.782400390625,0.5784586441248655,2.27267780572474,2.682441678920388
1761139734131459300,5.792459228515625,1.0231804334551096,1.9523335066914558,2.1573510523676873
1761139734141518300,5.802518310546875,1.2805179489552974,1.388562144088745,1.5855184022538362
1761139734151577300,5.812577392578125,1.5197767869293688,0.721826373834908,1.197833528266847
1761139734161636400,5.82263623046875,1.689987807640433,0.24675299312174317,0.7764911532193421
1761139734171695400,5.8326953125,1.8013275371879338,0.10251578710079193,0.38381621586009856
1761139734181754400,5.84275439453125,2.0175807626277207,0.2965148028954863,-0.027985300642997025
1761139734191813400,5.8528134765625,2.1485493217527867,0.4550900386095047,0.20402020520195363
1761139734201872600,5.86287255859375,2.2201269497543574,0.6049491761654615,0.7678951743096113
1761139734211931400,5.872931396484375,1.9393764099627733,0.6005868893027305,1.1858696803592146
1761139734221990700,5.88299072265625,1.2114292151600121,0.6157447109460831,1.0511496597461403
1761139734232049400,5.89304931640625,0.09426818323731422,1.111100562839955,0.8358477436818182
1761139734242108700,5.903108642578125,-0.3999935898095369,1.7631113499097526,0.6275415317237377
1761139734252167400,5.91316748046875,-0.9474906939595937,2.265208785018325,0.3835787538424134
1761139734262226700,5.923226806640625,-1.1947083819836377,2.110847367607057,0.06499386569708586
1761139734272285400,5.933285400390625,-1.147251049759984,1.4088241570033133,-0.03882423617392778
1761139734282344700,5.9433447265625,-0.8421206864714622,0.9483715684473514,-0.1296212361693382
1761139734292403500,5.953403564453125,-0.47668052364885805,0.6923692470736801,-0.25401538534015417
1761139734302462500,5.96346240234375,-0.12447452093064784,0.5724816155418754,-0.5395484832331537
1761139734312521500,5.973521484375,-0.06334931336045264,0.3814411572918296,-0.6840780963294207
1761139734322580500,5.98358056640625,-0.19558628498613834,0.22071721911132333,-0.6945337316311896
1761139734332639500,5.993639404296875,-0.35957156305015087,0.15073270552009344,-0.7674582441970705
1761139734342698500,6.003698486328125,-0.33919863710701464,0.15134513833001256,-0.8265586679413914
1761139734352757500,6.013757568359375,-0.20035072290897368,0.15765271404162048,-0.7682609388820827
1761139734362816500,6.02381640625,-0.0941033480644226,0.047154842145740984,-0.8107647403515875
1761139734372875500,6.03387548828125,-0.011807342171669006,-0.16440335734561085,-0.994233594303578
1761139734382934500,6.0439345703125,-0.022155717706680296,-0.36874314989075063,-1.2170093533799051
1761139734392993500,6.05399365234375,-0.04308335492312908,-0.5172819986283779,-1.3694938710033893
1761139734403052500,6.064052490234375,-0.08764847283661364,-0.6984639106869697,-1.3556982776239515
1761139734413111600,6.074111572265625,-0.003779518538713455,-0.7786991846576332,-1.3166376023456454
1761139734423170600,6.084170654296875,0.18712708419859408,-0.6965401030175388,-1.2553729863047598
1761139734433229600,6.0942294921875,0.3954553618580103,-0.620061258970946,-1.1210150770023464
1761139734443288600,6.10428857421875,0.5343552985042334,-0.526018408922106,-0.8831342493832111
1761139734453347300,6.114347412109375,0.49265258428454395,-0.5208171870172024,-0.6823883896768093
1761139734463406600,6.124406494140625,0.3646457975745201,-0.5237146620243788,-0.5572364078760147
1761139734473465300,6.13446533203125,0.1694447125136852,-0.5824387998022139,-0.6025859541654587
1761139734483524600,6.144524658203125,-0.041889176702499385,-0.7110089194834232,-0.6950684230297803
1761139734493583400,6.154583251953125,-0.24463234770596026,-0.7887930009096861,-0.8653566006302833
1761139734503642600,6.164642578125,-0.3940817354172468,-0.8518931618146598,-1.1202595824599266
1761139734513701400,6.174701416015625,-0.5130804552853108,-0.886035377652198,-1.3213731064349412
1761139734523760600,6.1847607421875,-0.6154471893042326,-0.9183099729869514,-1.40561790830791
1761139734533819400,6.1948193359375,-0.7319850720167159,-0.9870558846939355,-1.3927823921322822
1761139734543878700,6.204878662109375,-0.7258592826128005,-0.9789633252616972,-1.3247896368801593
1761139734553937400,6.2149375,-0.6725918028056621,-0.9504343461960554,-1.1884534132421016
1761139734563996700,6.22499658203125,-0.5831137764543295,-0.9590298136491328,-1.1077283099278807
1761139734574056700,6.235056640625,-0.4898433720827102,-0.9281043679010123,-1.0614882445394993
1761139734584115500,6.245115478515625,-0.3642261108577251,-0.9292989845130593,-0.9431915354609489
1761139734594174700,6.2551748046875,-0.24207974061369894,-0.9619817953225225,-0.660846127693355
1761139734604233500,6.2652333984375,-0.14956220043599605,-0.9309675022471695,-0.30845103214383124
1761139734614292700,6.275292724609375,-0.12490414451956748,-0.8491513888258486,0.0028857845693826675
1761139734624351500,6.2853515625,-0.03626256899237632,-0.740580758665502,0.32098610406816
1761139734634410500,6.295410400390625,0.12781681709587572,-0.5856573965225368,0.6727253660574555
1761139734644469500,6.305469482421875,0.14222995785176754,-0.5817267060101032,0.9227242092326283
1761139734654528500,6.315528564453125,0.07466974879801273,-0.6478823089629411,0.9976187066972255
1761139734664587500,6.32558740234375,-0.06287468158602715,-0.785618389461562,0.7845376815527677
1761139734674646500,6.335646484375,-0.22600655769109726,-1.023115770721063,0.40191900491416455
1761139734684705500,6.34570556640625,-0.37821547324359417,-1.3327215989232062,-0.10199322453141212
1761139734694764500,6.3557646484375,-0.5828092405498028,-1.719305964322388,-0.5177089918687939
1761139734704823600,6.365823486328125,-0.7375619953662157,-2.197932361342013,-0.6328887379705905
1761139734714882600,6.375882568359375,-0.6573965717613697,-2.6259002920091152,-0.6980611751049757
1761139734724941600,6.385941650390625,-0.3880021232426166,-2.744166021427512,-0.8202057917833327
1761139734735000600,6.39600048828125,-0.2711871771544218,-2.809775680935383,-0.6876718830376863
1761139734745059600,6.4060595703125,-0.13853051881194114,-2.889949872368574,-0.2819084776550531
1761139734755118600,6.41611865234375,-0.039382162317633626,-2.7671812785729766,0.07911182289868593
1761139734765177600,6.426177490234375,-0.21330022085309028,-2.518181675568223,0.18669819126203654
1761139734775236600,6.436236572265625,-0.584304447543621,-2.2895282566301525,0.2803691392585635
1761139734785295400,6.44629541015625,-1.1946604511886834,-2.026184632582962,0.39822321913614867
1761139734795354600,6.456354736328125,-2.0442975046396255,-1.5484098839566112,0.28128333149403334
1761139734805413400,6.466413330078125,-3.005967530599236,-0.9617743631169199,-0.07746800121441483
1761139734815472600,6.47647265625,-3.788556416171789,-0.5111132468655705,-0.3888878200359642
1761139734825531400,6.486531494140625,-4.5359167519748205,-0.2547927994534373,-0.342690132484585
1761139734835590700,6.496590576171875,-4.994657714307308,-0.44816637682616706,0.1452399533227086
1761139734845649400,6.5066494140625,-4.486739756351709,0.3909647724404931,0.6626059039074927
1761139734855708700,6.516708740234375,-3.589306347981095,1.771215015257895,0.44324930562488735
1761139734865767400,6.526767333984375,-2.1873077992141248,2.7453490937322376,0.7562647230748086
1761139734875826700,6.53682666015625,-0.7119143438905478,3.0448735998377203,1.7105720382466911
1761139734885885400,6.546885498046875,0.5710439839541912,2.8311311881750822,2.4207139656372365
1761139734895944700,6.55694482421875,1.7496522950083016,2.33374777597636,2.5384610780090093
1761139734906003500,6.56700341796875,2.257078670054674,1.5419930026516318,2.3317302986741066
1761139734916062700,6.577062744140625,2.3004835120171307,0.651676148287952,1.7416605656020343
1761139734926121500,6.58712158203125,2.4271564197748896,0.05964841301590204,1.372812932423502
1761139734936180500,6.597180419921875,2.4310019892871377,-0.23894904137253759,1.3565418888412415
1761139734946239500,6.607239501953125,2.333772033634782,-0.18753654178231954,1.0329234635081141
1761139734956298500,6.617298583984375,2.156056920903921,-0.06171878954917192,0.5744801324153319
1761139734966357500,6.627357421875,1.8829501738637684,0.4516986426055431,0.8346595568105578
1761139734976416500,6.63741650390625,1.5845190159529448,1.2303902284786103,0.9107778969816863
1761139734986475500,6.6474755859375,1.2156944713890552,1.8750985835805534,0.7132302487947046
1761139734996534500,6.657534423828125,0.6593886223614216,2.138643721549213,0.7044530680991709
1761139735006593500,6.667593505859375,-0.059737552604079244,2.40128840354681,1.273280691178143
1761139735016652500,6.677652587890625,-0.04648585684299469,2.6157164593860505,1.2725631905585526
1761139735026711600,6.687711669921875,0.16103753417432307,2.5858319009929893,0.915937544767186
1761139735036770600,6.6977705078125,0.20733283688127993,2.223120578612387,0.6634942310493439
1761139735046829600,6.70782958984375,0.017505846074223518,1.8249281930059194,0.5912251501848921
1761139735056888600,6.717888671875,0.10405775584578514,1.6671020220935344,0.5846370039662346
1761139735066947600,6.727947509765625,0.3811632171332836,1.65450265276134,0.5303424461336806
1761139735077006600,6.738006591796875,0.6243564719468355,1.5956044735908508,0.5145911155765875
1761139735087065300,6.7480654296875,0.8701455884724855,1.4699422041803598,0.6002053426392376
1761139735097124600,6.75812451171875,1.127588317912817,1.3821817954018711,0.7437123346894979
1761139735107183400,6.768183349609375,1.2586802111566067,1.3125629002526402,0.8868702210411429
1761139735117242600,6.77824267578125,1.2951689901202916,1.2611796267569064,0.8462949034161865
1761139735127301400,6.78830126953125,1.1980717209368943,1.1476380032509566,0.8681213161032646
1761139735137360600,6.798360595703125,1.1072826119869947,1.0352008338555694,0.9145934366818517
1761139735147419400,6.80841943359375,1.1282926667898894,0.9482155011028051,0.9156291364051401
1761139735157478700,6.818478759765625,1.1995967385470867,0.7878107118740677,0.7763817014954983
1761139735167537400,6.828537353515625,1.374680918252468,0.5536795921772718,0.5011804298615082
1761139735177596700,6.8385966796875,1.4806944843411445,0.27379151443392036,0.28856873926185067
1761139735187654700,6.848654541015625,1.5136603498756884,-0.0023757892206311224,0.09974654158316552
1761139735197714000,6.8587138671875,1.4630927766770123,-0.21200345904082057,0.0346543300781399
1761139735207774000,6.86877392578125,1.2877286109864712,-0.31427374694794413,-0.037571605764329434
1761139735217832700,6.878832763671875,1.0218167438864707,-0.3437774893298745,-0.109780298211053
1761139735227892000,6.88889208984375,0.7936492087692022,-0.3556213641196489,-0.08585698630996048
1761139735237950700,6.89895068359375,0.5531149440318346,-0.44458764155656094,-0.15279942879155278
1761139735248010000,6.909010009765625,0.3397755602121353,-0.5825839073613286,-0.14166414066255092
1761139735258068700,6.91906884765625,0.012844284003973007,-0.7799427549779415,-0.09266893134713172
1761139735268128000,6.9291279296875,-0.23442308838069437,-0.8668769420653581,-0.07591492655351757
1761139735278186800,6.939186767578125,-0.3541857783585787,-0.8697567352853715,-0.03802621766403317
1761139735288246000,6.94924609375,-0.3498836972504854,-0.7627450980700552,-0.08214768346324562
1761139735298304800,6.9593046875,-0.38421032974421976,-0.7613954370267689,-0.2543906483933329
1761139735308364000,6.969364013671875,-0.44469080967009067,-0.7956427206739782,-0.46555984856709837
1761139735318422800,6.9794228515625,-0.5638941121995449,-0.8123992096856236,-0.6461322504252195
1761139735328481800,6.989481689453125,-0.6589443857252597,-0.7666894517816603,-0.8071936038665473
1761139735338540800,6.999540771484375,-0.6451853249639272,-0.7019967609882354,-0.91343323379606
1761139735348599800,7.009599853515625,-0.46332536751329895,-0.6494871138110756,-0.942930254176259
1761139735358658800,7.019658935546875,-0.07541969038248061,-0.5486858755432069,-0.9236842864364385
1761139735368717800,7.0297177734375,0.7098848838895558,-0.3309048560142517,-0.7813349399887025
1761139735378776800,7.03977685546875,1.7182020947337149,-0.12090119248852133,-0.5392306494556367
1761139735388835800,7.0498359375,2.393841010150313,-0.27643223820105195,-0.4267581164859235
1761139735398894800,7.059894775390625,2.538313778492808,-0.9328495896667242,-0.6991029392428696
1761139735408953900,7.069953857421875,1.9657015223085879,-1.634923069152981,-1.5128839586757123
1761139735419012900,7.080012939453125,0.8917799126535654,-2.038461784223467,-2.262495142145455
1761139735429072000,7.09007177734375,-0.2388490881294012,-1.9539519016735254,-2.740444955077767
1761139735439131000,7.100130859375,-1.118420092073083,-1.4509244922384619,-2.8561180376544595
1761139735449190000,7.11018994140625,-1.5559715513825416,-0.767620960478112,-2.554830905790627
1761139735459249000,7.120248779296875,-1.7144874581247567,-0.27239538390040396,-1.8651073509201406
1761139735469308000,7.130307861328125,-1.813193916070461,-0.05257686719447374,-1.1747940134629606
1761139735479366700,7.14036669921875,-1.7504302936434746,0.08836560813002288,-0.6571218464732169
1761139735489426000,7.150426025390625,-1.7475614602088927,0.06296155615188181,-0.175124950107187
1761139735499484700,7.160484619140625,-1.8312345996737478,-0.08867927718907594,0.2721571912303567
1761139735509544000,7.1705439453125,-1.794327887558937,-0.08229943995885551,0.5726266500357539
1761139735519602700,7.180602783203125,-1.60804543749094,0.05138115460388362,0.4941917400179431
1761139735529662000,7.190661865234375,-1.2746125243037938,0.1670068178422749,0.30282150182425976
1761139735539720700,7.200720703125,-0.9116057261079549,0.165445194548741,0.23862927136626094
1761139735549780000,7.210780029296875,-0.7224965281814336,0.017260346880555152,0.2098335493895225
1761139735559838700,7.220838623046875,-0.6072241353601217,-0.10760003156252204,0.07380533225471153
1761139735569898000,7.23089794921875,-0.46409167571067805,-0.1702498914167285,0.1365987835643813
1761139735579956700,7.240956787109375,-0.26382629299759863,-0.36426205895394087,0.5543533632529899
1761139735590016000,7.25101611328125,-0.03823708393573761,-0.586479891886562,0.9695343295939266
1761139735600074800,7.26107470703125,-0.032845454025268554,-0.8713635128948837,1.1084529709406197
1761139735610133800,7.2711337890625,0.007732055556774139,-1.1706170931044966,1.1920775950886309
1761139735620192800,7.28119287109375,0.21097733086347578,-1.36439187168926,1.2624866177022456
1761139735630251800,7.291251708984375,0.42769583572745323,-1.5513666879355907,1.4329238483846187
1761139735640310800,7.301310791015625,0.6170733292013406,-1.7410101388692856,1.4265259640410541
1761139735650369800,7.311369873046875,0.7078542548447847,-1.7309239214017986,1.2270321502223611
1761139735660428800,7.3214287109375,0.6506809997707605,-1.4608566881880163,0.9535304125152527
1761139735670487800,7.33148779296875,0.33168519273698327,-1.058520480775088,0.7811285306964069
1761139735680546800,7.341546875,-0.33537352586090563,-0.7195522183578461,0.7718640779405832
1761139735690605800,7.351605712890625,-1.1032856513053177,-0.4087243740800768,0.7326528152104467
1761139735700664800,7.361664794921875,-1.7981126667946576,-0.08035619693659246,0.5882222055092453
1761139735710723800,7.371723876953125,-2.260287110707164,0.06876476253792643,0.7054914712361992
1761139735720782800,7.381782958984375,-2.5104607259273526,0.07489734700880944,1.1590523275170475
1761139735730841900,7.391841796875,-2.783207992005348,-0.01628390306383371,1.652512940248847
1761139735740900900,7.40190087890625,-2.8284821349710225,0.05617847188301384,1.9855247054144738
1761139735750959900,7.4119599609375,-2.558622407028079,0.25340105283409353,2.1116772425599395
1761139735761019000,7.422018798828125,-2.0566642342597246,0.3083249946113676,2.2083076248839495
1761139735771078000,7.432077880859375,-1.432998082664609,0.25870916917957365,2.120778686773777
1761139735781136600,7.44213671875,-0.9286287571012973,0.12707958886250853,1.9008920732676982
1761139735791196000,7.45219580078125,-0.7655933271080255,-0.03938742301464081,1.5460495845660567
1761139735801254700,7.462254638671875,-0.9551444235831499,-0.09140402597784995,1.2063313074991107
1761139735811314000,7.47231396484375,-1.3336831374317406,-0.035358605889976025,1.0006352049741893
1761139735821373700,7.482373779296875,-1.7560276752591133,0.144779496204108,0.8289408869028091
1761139735831432700,7.4924326171875,-1.9588819054216144,0.5567948015883565,0.45595882080066946
1761139735841491700,7.50249169921875,-1.6968845814168452,1.130466942089051,-0.05298888206146657
1761139735851550700,7.51255078125,-1.4615595757603645,1.3565477340601384,-0.16941267340760677
1761139735861609700,7.522609619140625,-1.6264420949250458,1.301899905810505,0.09951192910969257
1761139735871668700,7.532668701171875,-1.9085867194235324,1.377179310939461,0.35927217824477703
1761139735881728000,7.54272802734375,-1.9486819984465837,1.5290021497838198,0.5021499324807897
1761139735891786800,7.552786865234375,-1.727426434674859,1.5612649816155433,0.627566958425939
1761139735901846000,7.562845947265625,-1.2130290515720843,1.6853133860886096,0.7388430481527001
1761139735911904800,7.57290478515625,-0.5802157169252634,1.823093671055138,0.8037501854144037
1761139735921964000,7.582964111328125,-0.030012276425957676,1.8758632843427359,0.9592821079097688
1761139735932022800,7.593022705078125,0.43555356349050994,1.8726254714652895,1.388713242997229
1761139735942082000,7.60308203125,0.7766746930927038,1.8720919491104782,1.7666954920068383
1761139735952140800,7.613140869140625,1.0986895556867122,1.9346552266597747,2.0477529057905075
1761139735962199800,7.62319970703125,1.2104144851595162,1.7138351316958664,2.2672402908459306
1761139735972258800,7.6332587890625,0.5821668509930372,1.0126165154732762,2.1491633619979025
1761139735982317800,7.64331787109375,-0.37126609249711034,0.455767353349179,1.7686007411062716
1761139735992376800,7.653376953125,-0.9911877968668937,0.8361172082729638,1.0715260928206145
1761139736002435800,7.663435791015625,-1.0611422075808048,1.6515233446896076,0.3261967513885349
1761139736012494800,7.673494873046875,-0.731693980115652,2.272478922151774,-0.2763725439030677
1761139736022553900,7.683553955078125,-0.03493453525900841,2.4782915637284515,-0.6015829146027565
1761139736032612900,7.69361279296875,0.7098375376164913,2.053150819311291,-0.7545678560290485
1761139736042671900,7.703671875,1.4317670795649289,1.4050073751941323,-0.7194113485824316
1761139736052731000,7.71373095703125,2.0338363163799045,0.8590222830422222,-0.6499276971854269
1761139736062790000,7.723789794921875,2.3750077148646116,0.41364305271655316,-0.4946327252510935
1761139736072849000,7.733848876953125,2.35285491976738,0.08168211177811026,-0.3271385622832924
1761139736082908000,7.743907958984375,2.122827435997128,-0.06591887158751487,-0.30053550977893173
1761139736092967000,7.753966796875,1.7950877660155296,0.022168869449198245,-0.4237363575119525
1761139736103026000,7.76402587890625,1.6144178951323032,0.17377485067248344,-0.6320214536167681
1761139736113084700,7.774084716796875,1.6663421436369419,0.15438742863535881,-0.6982059904031455
1761139736123144000,7.78414404296875,1.8990800554096698,-0.0032192543074488636,-0.5823066247899085
1761139736133202700,7.79420263671875,2.1696312727481124,-0.1826999154061079,-0.3200979961220175
1761139736143262000,7.804261962890625,2.2219641020536423,-0.399258553533256,-0.12039675009772181
1761139736153320700,7.81432080078125,1.9845505996853112,-0.49196723236888645,-0.019060893496498463
1761139736163380000,7.8243798828125,1.6200684682399034,-0.46785775024592874,0.0243166951328516
1761139736173438700,7.834438720703125,1.254356502738595,-0.40472909389883277,0.14243490583933888
1761139736183498000,7.844498046875,0.9955413159012794,-0.4188277618780732,0.27487134555988013
1761139736193556700,7.854556640625,0.8858990379214287,-0.5143278249979019,0.39333632387742395
1761139736203615700,7.86461572265625,0.868790666732192,-0.6111842711627483,0.43668709756508467
1761139736213674800,7.8746748046875,0.911411664840579,-0.7083674650639296,0.4484620718371123
1761139736223733800,7.884733642578125,1.0128893410652875,-0.7592077177241444,0.4311323129821569
1761139736233792800,7.894792724609375,1.084745201486349,-0.747669547882676,0.4648217435508966
1761139736243851800,7.904851806640625,1.155755258733034,-0.6652534227415919,0.5732002121400088
1761139736253910800,7.914910888671875,1.1411650078445672,-0.5658680426210164,0.7080587644409387
1761139736263969500,7.924969482421875,0.9316776232779026,-0.5525362673610449,0.8224749788243323
1761139736274028800,7.93502880859375,0.5828104095935821,-0.5671358705997467,0.8214317533817141
1761139736284087600,7.945087646484375,0.2271025362342596,-0.48588557436764235,0.6618785394810139
1761139736294146800,7.955146728515625,-0.06287351254224777,-0.5001496620416641,0.5136319516882301
1761139736304205600,7.96520556640625,-0.15130758279860018,-0.5187497330933809,0.31556312917135654
1761139736314264800,7.975264892578125,-0.051662382698059076,-0.5713610870793462,0.08307334694080054
1761139736324323800,7.98532373046875,0.08046294524669646,-0.6684151016429066,-0.11379421002753078
1761139736334382800,7.9953828125,0.1120762271285057,-0.768619396930933,-0.20838154221661387
1761139736344441900,8.00544189453125,0.0652554392427206,-0.8239525770962238,-0.25414836407005786
1761139736354500900,8.0155009765625,0.055306292158365244,-0.8727847048044204,-0.24490714605934916
1761139736364560000,8.025559814453125,-0.0722445674777031,-1.0133502365753053,-0.2138687779886648
1761139736374619000,8.035618896484374,-0.27576865972578524,-1.1357204787030815,-0.23439397188406436
1761139736384679000,8.045678955078126,-0.48577042355537414,-1.1757748411938547,-0.29343535891752687
1761139736394736600,8.055736572265625,-0.5721347018003463,-1.0509802945286035,-0.2632556535027921
1761139736404797000,8.065796875,-0.3529764025688171,-0.7853942983821034,-0.09537026272770016
1761139736414855700,8.075855712890625,0.07168518002927303,-0.5978466506838798,0.20449691933561115
1761139736424915000,8.0859150390625,0.44510055951476096,-0.5365592382892966,0.4963757329935208
1761139736434973700,8.0959736328125,0.6922533656090497,-0.5310799300953746,0.648654754640162
1761139736445033000,8.106032958984375,0.7173270165890455,-0.5510787620291113,0.6401863476328551
1761139736455091700,8.116091796875,0.6072352412760257,-0.5897688504293561,0.4940727532807737
1761139736465150700,8.126150634765626,0.3586550327271223,-0.678375354643166,0.36812498145978895
1761139736475209700,8.136209716796875,0.026590485283732413,-0.8439014324083923,0.4327554937371984
1761139736485268700,8.146268798828125,-0.03827449333667755,-0.9241232623755932,0.42063488436527546
1761139736495327700,8.15632763671875,0.0008043021202087402,-0.7336825235843658,0.2858793175147846
1761139736505386800,8.16638671875,0.03952244757115841,-0.5598381148070096,0.39744269975032653
1761139736515445800,8.17644580078125,0.06787643539607524,-0.556146566812694,0.5055631019251421
1761139736525504800,8.1865048828125,0.21709493696093557,-0.43274113641828293,0.45242801632601765
1761139736535563800,8.196563720703125,0.2730138080596924,-0.2105649506703019,0.4697444042427465
1761139736545622800,8.206622802734374,0.185823600384593,-0.003078384532034397,0.47390072020459917
1761139736555681800,8.216681884765626,0.01009878468811512,0.22121552402228115,0.4719221501406282
1761139736565740800,8.22674072265625,-0.32655425958931444,0.45714287948608395,0.43679227497261014
1761139736575799800,8.2367998046875,-0.7016098074972629,0.6819143424242734,0.42481344869155435
1761139736585858800,8.24685888671875,-1.0476567030638455,0.8671019829928874,0.46430356489568947
1761139736595917800,8.256917724609375,-1.372118374288082,1.0338789376020432,0.4157810876585543
1761139736605976800,8.266976806640624,-1.524979616269469,1.2457964719250798,0.3451359912667423
1761139736616035600,8.27703564453125,-1.5081570762842893,1.4387614684969185,0.32678266151770946
1761139736626094800,8.2870947265625,-1.3356103061020375,1.5559274199798703,0.3524139463804662
1761139736636153600,8.297153564453126,-1.1156664094507693,1.5378157169669866,0.3811813373118639
1761139736646212900,8.307212890625,-1.0202741906195878,1.338492291279137,0.3297950681414455
1761139736656271600,8.317271728515625,-1.0112357286393643,1.200204056790471,0.22567783719338474
1761139736666331000,8.327330810546876,-0.8449410045892,1.2520163693532347,0.17074377588089554
1761139736676389600,8.3373896484375,-0.6168705001056194,1.2492176785454154,0.17468823919035492
1761139736686449000,8.347448974609375,-0.3622632863521576,1.143597203427553,0.3083300726452842
1761139736696507600,8.357507568359376,-0.15593582712113857,1.054934877373278,0.36184871420189735
1761139736706567000,8.36756689453125,0.07218669981062412,1.0180611907452344,0.3483974407481029
1761139736716625700,8.377625732421874,0.39716508838534353,1.0635504377663134,0.28718977905884385
1761139736726685000,8.387684814453126,0.8556324944734572,1.1668798793375492,0.1442934297202155
1761139736736743700,8.39774365234375,1.224512568616867,1.2030544777855277,-0.01503605842720717
1761139736746802700,8.407802734375,1.4306804533720017,1.1727312357142567,-0.24598398151062428
1761139736756861700,8.41786181640625,1.5235305865049362,1.2077394207313656,-0.561570053166151
1761139736766920700,8.427920654296875,1.4309171847373245,1.1413117228388785,-0.7758474484883249
1761139736776979700,8.437979736328124,1.17267833648324,1.0829086337089537,-0.8588982913363724
1761139736787038700,8.448038818359375,0.7789087357550859,1.0392471866369246,-0.8256897761523723
1761139736797097700,8.45809765625,0.2729810748338699,0.9605597266301512,-0.6632486587904394
1761139736807156700,8.46815673828125,-0.19000059380829334,0.8124684755295515,-0.38527573048602787
1761139736817215700,8.4782158203125,-0.47559623554348945,0.7325909289553761,-0.15950287195295096
1761139736827274800,8.488274658203125,-0.5652221459329128,0.6395797600418329,-0.04969338418003171
1761139736837333800,8.498333740234376,-0.4292670305669307,0.4594599242568016,0.0013528759136795998
1761139736847392800,8.508392822265625,-0.16216273881196974,0.2248363448679447,0.0271784047069028
1761139736857451800,8.51845166015625,0.1314431908994913,0.01780716710835695,0.04493888312932104
1761139736867510800,8.5285107421875,0.3735024732470512,-0.1382224757760763,0.01312149351015687
1761139736877569800,8.53856982421875,0.5924883385211229,-0.3116197253078222,-0.033785511354357
1761139736887628800,8.54862890625,0.7195172201097011,-0.43107612581551075,-0.028264336780086156
1761139736897687600,8.5586875,0.7151134321928024,-0.5168816011339425,-0.033436643117759374
1761139736907746800,8.568746826171875,0.6308072555214166,-0.46723085051923985,-0.07278093937672674
1761139736917805600,8.5788056640625,0.49842999864220616,-0.3394651790887117,-0.06108865668578073
1761139736927864800,8.58886474609375,0.35507834328413007,-0.23418840284198522,-0.0020284370876848695
1761139736937923600,8.598923583984375,0.21571020460426807,-0.1693608336225152,-0.07043006540164351
1761139736947982800,8.60898291015625,0.15821429344713686,-0.11169131946414708,-0.2151582698099315
1761139736958043000,8.61904296875,0.153747377166152,-0.08813800991922617,-0.3010016659859568
1761139736968101600,8.6291015625,0.13569792573451994,-0.09745558110177516,-0.3523746372833848
1761139736978161000,8.639160888671874,0.09338204805254936,-0.0644034985885024,-0.3568459009459242
1761139736988219600,8.6492197265625,0.06872457665801047,-0.04581687154024839,-0.3410912459205836
1761139736998279000,8.65927880859375,0.05373743540644645,-0.01964490392953157,-0.2839709631428122
1761139737008337700,8.669337646484376,0.12231997324526309,0.04728372922241687,-0.19446992124207316
1761139737018397000,8.67939697265625,0.29374212331175803,0.129125561606884,-0.08308514697644859
1761139737028455700,8.68945556640625,0.5042015677809715,0.14952449877411125,-0.021101495946012436
1761139737038515000,8.699514892578126,0.5830407112181186,0.1644569872289896,-0.15188103530500083
1761139737048573700,8.70957373046875,0.6127209792107343,0.18620470865666866,-0.28983419262040405
1761139737058633000,8.719633056640625,0.7097644723802804,0.23787205979079007,-0.29856081217247993
1761139737068691700,8.729691650390626,0.8912205252051353,0.33048604608029125,-0.2018724525835365
1761139737078751000,8.7397509765625,1.131672372356057,0.4339008278474211,-0.1408579388462007
1761139737088809700,8.749809814453124,1.3405758195549249,0.5312912347584963,-0.14312307076659053
1761139737098868700,8.75986865234375,1.4663187529861925,0.5992708382681011,-0.25978980402313173
1761139737108927700,8.769927734375,1.5745803902626037,0.7328229841455817,-0.36433355328757316
1761139737118986800,8.77998681640625,1.6797908232748509,0.8436436582550406,-0.38243214109055695
1761139737129045800,8.790045654296875,1.6243875004827975,0.971871394239366,-0.4352527173804119
1761139737139104800,8.800104736328125,1.4416098436653613,1.165481410716474,-0.5450464595949277
1761139737149163800,8.810163818359374,1.2535931171506642,1.3573492597013712,-0.5477119524771348
1761139737159222800,8.820222900390625,1.0810761575847863,1.527744112546742,-0.5213325161281973
1761139737169281800,8.83028173828125,0.8615291512966156,1.7811504260778426,-0.4634919927844777
1761139737179340800,8.8403408203125,0.6690823333799839,1.9687933508440851,-0.4950271679287776
1761139737189400600,8.850400634765625,0.7230804655492306,1.9344474291279912,-0.5280743185386061
1761139737199459800,8.8604599609375,0.9405611869573592,1.746395339038968,-0.5527894384045153
1761139737209518600,8.8705185546875,1.2396242130309343,1.5401082118183373,-0.587664133235067
1761139737219577900,8.880577880859375,1.5956068116784095,1.3677221851557493,-0.6507338259365409
1761139737229636600,8.89063671875,1.8451783693522215,1.1390516689524053,-0.5790253380969166
1761139737239696000,8.90069580078125,1.9203280106216667,0.9615157121807336,-0.5051174405168741
1761139737249754600,8.910754638671875,1.901692283734679,0.9108025930315256,-0.45859629316478967
1761139737259814000,8.92081396484375,1.7883844689846038,0.902058730083704,-0.4717297693736851
1761139737269872600,8.93087255859375,1.6340765353262423,0.858568547925353,-0.5208532081786543
1761139737279932000,8.940931884765625,1.4560405200779438,0.7597741194352507,-0.5599775232776999
1761139737289990700,8.95099072265625,1.3644488625735043,0.6563529079273343,-0.6635847588770091
1761139737300049700,8.961049560546876,1.3739578646749258,0.519959985665977,-0.6505670910675079
1761139737310108700,8.971108642578125,1.3587632181525229,0.3110761199504137,-0.4609088078908622
1761139737320167700,8.981167724609374,1.3609294562757015,0.16615326975286007,-0.3490048685893416
1761139737330226700,8.991226806640626,1.383265791246295,-0.001645429119467735,-0.19625337059274314
1761139737340285700,9.00128564453125,1.4045605082094668,-0.1956219408214092,0.00531841854378581
1761139737350344700,9.0113447265625,1.3533780179828405,-0.35204993537366386,0.2477387892886996
1761139737360403700,9.02140380859375,1.1094506036758423,-0.419559291023016,0.47009515390917656
1761139737370462700,9.031462646484375,0.7070622276842594,-0.597827653722465,0.6935738005578518
1761139737380521700,9.041521728515624,0.20045126067399976,-0.8376210369646548,1.1072856807269156
1761139737390581000,9.0515810546875,-0.48615386991500853,-1.1815417341575025,1.5742153563424943
1761139737400639700,9.0616396484375,-1.051167926055193,-1.3670368332400917,1.8461197418555617
1761139737410699000,9.071698974609374,-1.5914420932143927,-1.319390992707014,1.8622468469224869
1761139737420757800,9.0817578125,-2.1897850029826165,-1.2495390194542706,1.6716320667386053
1761139737430816800,9.091816650390625,-2.9701573815494773,-1.3070740935780107,1.3883505471646784
1761139737440875800,9.101875732421876,-3.87234938262403,-1.9804006403990089,1.6965736157715319
1761139737450934800,9.111934814453125,-5.006324771225452,-2.632414788469672,1.6610235789626835
1761139737460993800,9.121993896484375,-6.160017252209782,-3.044180649137497,1.361599902883172
1761139737471052800,9.132052734375,-6.972526059749722,-3.1717087124198673,1.102673656886816
1761139737481111800,9.14211181640625,-7.67722272734642,-2.891611668100953,0.8807365405917167
1761139737491170800,9.1521708984375,-7.781375175738334,-2.4045213941186665,1.1082023571804165
1761139737501230600,9.162230712890626,-7.2737576620340345,-1.546793096409738,1.2914116834133862
1761139737511288800,9.172288818359375,-6.915221287250518,-0.797670427109301,1.0880725923433898
1761139737521348600,9.1823486328125,-6.421977166813612,-0.4753679797455668,0.608958119545877
1761139737531408000,9.192407958984376,-5.293852257806062,-0.4741182719454169,0.5936646888241172
1761139737541466600,9.202466552734375,-3.7457723364561795,-0.298809343573451,0.13275924193412064
1761139737551526000,9.21252587890625,-2.153510743552446,-0.4784612695857882,-0.5697188728302717
1761139737561584600,9.222584716796876,-0.5361877746284007,-0.7660480851382017,-0.9127315152674913
1761139737571644000,9.232643798828125,0.8431652270883321,-1.189502630034089,-0.7285846159234642
1761139737581702700,9.24270263671875,2.123348245000839,-1.8005726271674036,-0.3637701837837696
1761139737591762000,9.252761962890625,3.040151539751887,-2.2581091821461916,0.2856625694915652
1761139737601820700,9.262820556640625,4.163143762046098,-1.9849664870098231,1.0285013362169264
1761139737611880000,9.2728798828125,5.340153990253806,-1.377886728556454,1.5180135766491294
1761139737621938700,9.282938720703125,5.6654410063862795,-0.3736813369452953,1.7196648607626557
1761139737631997700,9.292997802734375,4.697851527249813,-0.23864158285856246,1.6490975788474083
1761139737642056700,9.303056640625,4.263566960781812,-0.012045827102661132,1.5343131156735121
1761139737652115700,9.31311572265625,3.245384189483523,-0.17375293110162018,1.759822245236486
1761139737662174700,9.3231748046875,0.4588374084442854,-0.7420841489657759,2.4758453396201134
1761139737672233700,9.333233642578126,1.5404244381606578,-0.3434393434166908,2.2138852788858117
1761139737682292700,9.343292724609375,0.25014964982271193,-0.12995207555890081,1.0373802237212657
1761139737692351700,9.353351806640624,-0.43553661235570906,-0.4322007459312677,0.7243225014995783
1761139737702410800,9.36341064453125,-1.2651292411655186,-0.39818127969056366,0.30734475140236317
1761139737712469800,9.3734697265625,-1.239852176567912,0.7040031323745847,-0.4896517219681292
1761139737722528800,9.38352880859375,-0.7797825959801673,2.066520150102675,-1.0421629279531537
1761139737732587800,9.393587890625,-1.149518994691968,2.496780575621128,-0.453021123380959
1761139737742646800,9.403646728515625,-1.471170869192481,2.734137671627104,0.33393344658780844
1761139737752705800,9.413705810546874,-2.9715485436469313,3.3312072004586457,0.8423537645749747
1761139737762764800,9.423764892578125,-1.610680462169647,3.3080995888546108,0.6514788721501826
1761139737772823800,9.43382373046875,-0.9411801956385374,2.6687957231447097,0.2792313674002886
1761139737782882800,9.4438828125,-0.4808201076716184,2.477953710076213,0.004071149295894429
1761139737792941800,9.45394189453125,0.4659387648820877,2.2329519445359707,-0.7380027248710394
1761139737803000600,9.46400048828125,1.1616004776298998,2.105644246006012,-1.3922835026994347
1761139737813059800,9.474059814453126,1.8029986852705477,2.1087442578479645,-1.8519326659180222
1761139737823118600,9.48411865234375,2.321621577113867,1.8413629027172922,-2.011911192558706
1761139737833177900,9.494177734375,2.374106382110715,1.45275579931885,-1.5488552896365522
1761139737843236600,9.504236572265626,2.200737189629674,1.2627706953406332,-0.8629597686216235
1761139737853295900,9.5142958984375,2.125710297957063,1.427275905625522,-0.43967703662868585
1761139737863354600,9.524354736328124,2.3726246191203595,1.8614204791009425,-0.6253486978545785
1761139737873414000,9.534413818359376,2.2993933786928653,2.2887346220344305,-0.022196506374794988
1761139737883472600,9.54447265625,2.205841819292307,2.406219430208206,1.2918246481284499
1761139737893532000,9.554531982421874,2.559835874471068,2.3671499871015547,2.0420431498415765
1761139737903590700,9.564590576171875,3.3766426714658735,2.1831588628411294,1.949279964339733
1761139737913650000,9.57464990234375,2.5548054790884254,1.0847310268305241,2.100698752427846
1761139737923708700,9.584708740234374,1.4361375497341156,-0.5249707995653152,2.123521555741131
1761139737933767700,9.594767578125,1.9604782347023486,-1.1680329948954284,1.5220955852657556
1761139737943826700,9.60482666015625,2.0914222439080477,-0.6878102685950696,0.614345219411701
1761139737953885700,9.6148857421875,1.5355243911594152,-0.18216726983413098,0.24951383613720535
1761139737963944700,9.62494482421875,0.9610299744904041,0.14322035712860523,-0.00914360285513103
1761139737974003700,9.635003662109375,0.49898003374040123,0.16866941729225218,-0.16082820227257907
1761139737984062700,9.645062744140626,0.04817804771363735,-0.022627646067366003,-0.21882292979732154
1761139737994121700,9.655121826171875,-0.7823655982106924,-0.3521797722984105,-0.5217582672595977
1761139738004180700,9.6651806640625,-1.0583452703386544,-0.6460075280670077,-0.5575232619933783
1761139738014239700,9.67523974609375,-1.148259934541583,-0.7225238545797765,-0.39657567112483083
1761139738024298800,9.685298828125,-1.0703390749931334,-0.5656550574574619,-0.17552213273122905
1761139738034357800,9.695357666015624,-0.9362678736776113,-0.45328061456736174,-0.017552607825398445
1761139738044417800,9.705417724609376,-0.7405512403100728,-0.23201836532652376,0.04461560599170625
1761139738054476800,9.715476806640625,-0.6651105071395635,-0.15498440814781933,0.3776555743385106
1761139738064535800,9.725535888671875,-0.7536702496021985,-0.4209537410560995,0.3605663462411612
1761139738074594800,9.7355947265625,-1.1838321831822394,-0.7523205885589123,-0.3197574390560388
1761139738084653800,9.74565380859375,-1.8372925845384596,-1.1670058438047766,-0.33627953478991984
1761139738094712800,9.755712890625,-2.0445786596685647,-1.4990325434558092,-0.046489217843860384
1761139738104771800,9.765771728515626,-1.521121187275648,-1.7207456417366862,-0.4166694148004055
1761139738114830800,9.775830810546875,-1.083750929751992,-1.8449547897294163,-0.9036066901780664
1761139738124889900,9.785889892578124,-0.41736674941480156,-2.1574150575146076,-1.2774252436369657
1761139738134948600,9.795948486328125,-0.10089490790069103,-2.4810960997551676,-1.7885230006724595
1761139738145007900,9.8060078125,0.02492752050757408,-2.660181039534509,-1.3686071512967348
1761139738155066600,9.816066650390624,-0.18570435791909692,-2.620381528587639,-0.0786991504445672
1761139738165126000,9.8261259765625,-1.2949439491927623,-3.2501617791488764,0.45430272415671497
1761139738175184600,9.8361845703125,-1.373065884271264,-2.744792921154201,-0.16670856554806232
1761139738185244000,9.846243896484374,-1.3387071030735969,-1.6177759733885526,-0.6905396935589612
1761139738195302700,9.856302734375,-2.1600737553298472,-1.5577999358534813,-1.4624047944128513
1761139738205361700,9.866361572265625,-2.0303771158367394,-0.8760664298888295,-1.4094265068106353
1761139738215420700,9.876420654296876,-2.6920138093858954,-1.212774492289126,1.6554015012972056
1761139738225479700,9.886479736328125,-3.008821750986576,-1.4915844194069503,2.3534181066080926
1761139738235538700,9.89653857421875,-2.124365313088894,-0.7541320949602872,1.5020698653250932
1761139738245597700,9.90659765625,-1.493551043304801,-0.9901438407719134,1.6307608349069953
1761139738255656700,9.91665673828125,-1.3852262776643036,-1.384908590017259,1.619447705993056
1761139738265715700,9.9267158203125,-1.4936732083797455,-1.3616666845090686,1.499773132690042
1761139738275774700,9.936774658203126,-1.4774509723752736,-1.5638162735335528,1.2509691983878612
1761139738285833500,9.94683349609375,-0.7956681473761796,-1.7556993200875817,0.683309450044483
1761139738295892700,9.956892822265624,-0.34653438682258125,-1.6073570168353617,-0.4372831637620926
1761139738305951500,9.966951416015625,-0.8126064226955175,-1.6185001960098742,-1.5602552200511097
1761139738316010800,9.9770107421875,-1.500891469195485,-1.4319203704304992,-2.1640238081298766
1761139738326069500,9.987069580078124,-2.32126092710793,-0.7395182440005242,-2.5760461277768014
1761139738336128800,9.997128662109375,-2.757857277649641,0.35616109701953824,-2.9893238543123006
1761139738346187500,10.0071875,-2.854972082489729,1.0417423644535242,-2.6956764235466717
1761139738356246800,10.017246826171874,-2.634206932583451,1.1635821529664099,-1.88980588497743
1761139738366305500,10.027305419921875,-1.977609402245283,1.3657678362175822,-1.0960386027865112
1761139738376364800,10.03736474609375,-1.3146066810399293,1.6317570063374935,-0.45900531235709785
1761139738386423600,10.047423583984376,-1.0422036983549594,1.61122976661548,-0.013744301583617925
1761139738396482800,10.05748291015625,-0.7311544664114713,1.477482974948734,0.2406003157109022
1761139738406541600,10.06754150390625,-0.3746668408513069,1.3522472603872417,0.3633008857715875
1761139738416600800,10.077600830078126,-0.19548224008977413,1.2109832249581813,0.2771097721364349
1761139738426659600,10.08765966796875,-0.11113280879855156,1.2101748311847447,0.04713109594397247
1761139738436718600,10.097718505859374,-0.07623919007182121,1.1194720853440463,-0.10211677784584462
1761139738446777600,10.107777587890626,0.21317747125625608,1.0566057331949472,-0.3641057724136859
1761139738456836600,10.117836669921875,0.5000900408089161,1.0769484101302922,-0.6288379282098263
1761139738466895600,10.1278955078125,0.6330044733047485,1.1463079236909746,-0.8427029433388262
1761139738476954600,10.13795458984375,0.5671007992863655,1.1405235681358725,-1.0486403072737156
1761139738487013600,10.148013671875,0.5490805739492177,0.98531978161633,-1.3728734304390846
1761139738497072600,10.15807275390625,0.5160615169227123,0.907214724607393,-1.7157755982391536
1761139738507131600,10.168131591796875,0.25764731210172176,0.8214020158305764,-1.8637725951850412
1761139738517190700,10.178190673828125,-0.3394873909205198,0.9496002334594726,-1.6937113582082093
1761139738527249700,10.188249755859376,-0.6300526377618313,1.235696079801768,-1.3834762191265821
1761139738537308700,10.19830859375,-0.4484428556799888,1.3286493810482323,-1.30661363645941
1761139738547367700,10.20836767578125,-0.08833996223211288,1.5976007619746029,-1.2560823036178945
1761139738557426700,10.2184267578125,0.35345395695269105,1.9085669918097554,-0.8979474953725933
1761139738567485700,10.228485595703125,0.5782850411236286,1.828818332312256,-0.18669687608778476
1761139738577544700,10.238544677734374,0.5999047522574663,1.3308090433001518,0.6219711842454969
1761139738587604700,10.248604736328126,0.28040917900800705,0.7178685761198401,1.3773933920815586
1761139738597663700,10.258663818359375,-0.8680945011615753,0.10043678886964917,2.541306822828948
1761139738607722800,10.26872265625,-1.9167939912766216,-0.08789952498823404,3.7775954616963863
1761139738617781800,10.27878173828125,-1.8894757762402294,0.2162228303015232,4.000216468602419
1761139738627840800,10.2888408203125,-1.0593845502585173,0.22876082483530044,2.9368086541771885
1761139738637899500,10.2988994140625,-0.3915250366717577,0.10789455752968788,1.3939602037400007
1761139738647958800,10.308958740234376,-0.6313081907808781,0.728504828685522,0.017833908984810114
1761139738658017500,10.319017578125,-1.4018226076781748,1.5280863501131534,-0.9142352708939462
1761139738668076800,10.329076904296874,-1.68113463909924,1.4931825022533536,-1.4093655704036354
1761139738678135600,10.339135498046875,-1.3926573044478892,0.756019443076849,-1.3109513734027742
1761139738688194800,10.34919482421875,-0.9986351902633905,0.573778377354145,-0.4333139678701758
1761139738698253600,10.359253662109374,-0.7598673506766557,0.7971446496695279,1.0144543984249235
1761139738708312800,10.369312744140625,0.08632394623458385,0.5297916438505054,1.9636198937289415
1761139738718371600,10.37937158203125,1.1787556105703114,0.2860331563696265,2.363835455726087
1761139738728430800,10.389430908203124,1.864593848440051,0.19270780694037676,1.7944576514184474
1761139738738489600,10.399489501953125,1.791492956393957,0.3335191301658749,-0.09359651278713718
1761139738748548900,10.409548828125,1.9913538499593733,1.2652715722456573,-2.2454460999280212
1761139738758607600,10.419607666015626,-1.2740934688657521,3.3754642753362654,-3.0089491767585277
1761139738768666600,10.42966650390625,0.9343021265625953,2.5089190494433042,-2.2903275903142988
1761139738778725600,10.4397255859375,1.5400357311040163,0.9744482589900493,-1.636938354498148
1761139738788784600,10.44978466796875,2.7010458416253327,0.42413215189650655,-2.547017601691186
1761139738798843600,10.45984375,3.758856274434924,-0.624889702040702,-2.409915946638584
1761139738808902700,10.469902587890624,4.315166215115785,-1.3479073314867913,-1.703108570498228
1761139738818961700,10.479961669921876,4.434651257196069,-1.5373336325384677,-1.1947020253080873
1761139738829020700,10.490020751953125,4.008837581953406,-1.619408543026447,-0.7567471728295088
1761139738839079700,10.50007958984375,3.6704391553133724,-1.750077680813521,-0.1684926359532401
1761139738849138700,10.510138671875,3.8915918432325123,-1.8645818657413125,0.3601404124466702
1761139738859197700,10.52019775390625,4.150691692230105,-2.11261803054139,1.2207434253416956
1761139738869256700,10.530256591796874,4.363782069724798,-2.1249945509031414,1.954365889301896
1761139738879315700,10.540315673828125,4.733448325809836,-2.311510079074651,2.2177432694882153
1761139738889374700,10.550374755859375,4.379990277203917,-2.5049893087789417,2.42156561403051
1761139738899433700,10.560433837890624,4.006015510269999,-2.6890058597415685,1.854444502608478
1761139738909492700,10.57049267578125,3.6195483415096996,-2.6844062569916245,1.0740743890639395
1761139738919551500,10.580551513671875,3.268374604448676,-2.433607203349471,0.41511582868285474
1761139738929610800,10.59061083984375,2.9428870973080397,-2.1281395709306,-0.18498619971238076
1761139738939669500,10.60066943359375,2.0278578264921903,-1.9081151563890277,-0.6005537176854908
1761139738949728800,10.610728759765625,1.3969137928485869,-1.6286479344062506,-0.7470329304795712
1761139738959787500,10.62078759765625,1.1312269666761159,-1.227280279764533,-0.8210350091490894
1761139738969846800,10.6308466796875,0.98871410022974,-0.923329920040816,-0.6920263519201427
1761139738979905500,10.640905517578124,1.1743056454241274,-0.8744289648801088,-0.4448516262549907
1761139738989964800,10.65096484375,1.3109551727950572,-0.8956570463478565,-0.15631386665329336
1761139739000023600,10.6610234375,1.1333727465331553,-1.0253013711318373,-0.029661490226909518
1761139739010082800,10.671082763671874,0.8962655336350202,-1.060608246834576,0.06283668766319751
1761139739020141600,10.6811416015625,0.3692945001631975,-0.8034218302428722,0.07868892131149768
1761139739030200800,10.691200927734375,-0.4217360505402088,-0.4491884133502841,0.10689867836013436
1761139739040259600,10.701259521484374,-0.4174485824793577,0.07747340804189443,0.05303220974653959
1761139739050318600,10.711318603515625,-0.4373562289983034,0.5430684740528464,-0.27071159553192553
1761139739060377600,10.721377685546875,-0.3595136953830719,0.7246572133466601,-0.3427089102502912
1761139739070436600,10.7314365234375,-0.3508937510758638,0.9192936502620578,-0.3752827807925641
1761139739080495600,10.74149560546875,-0.1254039107352495,0.8288187218278646,-0.20990889791436493
1761139739090554600,10.7515546875,-0.5048474644690751,0.571572099481523,0.22453743498660622
1761139739100613600,10.761613525390626,-0.8669804024398327,0.3313160671636462,0.2733804494149983
1761139739110672600,10.771672607421875,-0.8930541703730821,0.25315380007475613,0.11665003785006701
1761139739120732700,10.781732666015625,-0.6137257723391055,0.36076837161928416,-0.108303211395815
1761139739130791700,10.791791748046874,-1.11506844355762,0.5596802938967943,-0.3092594259172678
1761139739140850700,10.8018505859375,-1.596159769386053,0.5403446020469069,-0.21591785600557922
1761139739150909700,10.81190966796875,-1.1634154180973768,0.40531566161513327,0.016145152180269358
1761139739160968700,10.82196875,-0.9285469240367412,0.18054127606749534,0.3399483594957739
1761139739171027700,10.83202783203125,-1.0631903722822666,-0.09950959102213382,0.637328473983705
1761139739181086700,10.842086669921875,-1.0083166263222694,-0.19604075075536964,0.893838744879514
1761139739191145200,10.852145263671876,-0.7812894934117793,-0.19297493344396352,1.1422872168075293
1761139739201204200,10.862204345703125,-0.48749476312994955,-0.13454846343845128,1.3077416175760328
1761139739211263200,10.87226318359375,-0.1557598860323429,-0.19170593642145395,1.2600738574720918
1761139739221322200,10.882322265625,0.33921617276370525,-0.0016220482438802717,0.9912667803872376
1761139739231381200,10.89238134765625,0.8894967701524495,0.44950610099732874,0.5408106851886958
1761139739241440300,10.902440185546874,1.067296054035425,0.7608885104179381,0.08994535160213708
1761139739251499300,10.912499267578125,1.1161199984371661,0.8975959054559469,-0.29274383298940954
1761139739261558300,10.922558349609375,1.2721008337438107,0.7365805831134319,-0.6687655955810099
1761139739271617300,10.9326171875,1.1942653143912554,0.4875207743540406,-0.8311196922466159
1761139739281676300,10.94267626953125,1.3476666545987128,0.32035628173202274,-0.8898922722760587
1761139739291735300,10.9527353515625,1.3071861756503582,0.3781219497412443,-0.8457361004896461
1761139739301794300,10.962794189453126,1.2279933964699505,0.5862918219685554,-0.683543770257011
1761139739311853000,10.97285302734375,1.4682897607982157,0.7397717803701758,-0.3469426022972911
1761139739321912300,10.982912353515625,1.5199106424421072,1.0557362568840385,0.19013101525492965
1761139739331971000,10.99297119140625,1.6630939554959534,1.3099684998452663,0.6461185872260481
1761139739342030300,11.0030302734375,1.5645634386390446,1.3117971765771508,0.9611424218889325
1761139739352089000,11.013089111328124,1.148112635025382,1.1584648099526762,1.3103808800384402
1761139739362148400,11.0231484375,0.7256722356081009,0.8119312999129294,1.6315990392968058
1761139739372207000,11.03320703125,0.4785983399689197,0.30637919430583715,1.650453669631481
1761139739382266400,11.043266357421874,0.4921691846817732,-0.1331990946561098,1.4990931876018643
1761139739392325000,11.0533251953125,0.5080155731111765,-0.42486616525948045,1.4228136655196546
1761139739402384400,11.06338427734375,0.5116390243053436,-0.5310580105245113,1.404396988210827
1761139739412443100,11.073443115234374,0.7823901481300592,-0.3736255151048302,1.5256741744048892
1761139739422502400,11.08350244140625,0.7885644528508186,-0.13962035987526178,1.904120679925382
1761139739432561200,11.09356103515625,0.8212117539554834,0.1032642673805356,2.1643223526850344
1761139739442620200,11.1036201171875,0.7343669987171888,-0.16419161429107187,1.9568767030790446
1761139739452679200,11.11367919921875,0.47284606005251406,-0.4262225483044982,1.7156030181512236
1761139739462738200,11.12373828125,0.3273971401542425,-0.5100917948633432,1.4306117720499634
1761139739472797400,11.13379736328125,0.33142449597418305,-0.48252749611139295,1.263116440038383
1761139739482856200,11.143856201171875,0.4275952979624271,-0.2552314831316471,1.1220850443214176
1761139739492915500,11.15391552734375,0.5259843605220318,-0.08611673322468996,0.9751708011109381
1761139739502974200,11.16397412109375,0.4383078306347131,0.027290742507576942,1.0306548609890043
1761139739513033500,11.174033447265625,0.3302694807201624,0.3090969288319349,0.9719924633357673
1761139739523092200,11.18409228515625,0.47753801726102824,0.6258075475379824,0.8792638376906514
1761139739533151500,11.1941513671875,0.5473030428826808,0.681557199549675,0.8586256118748337
1761139739543210200,11.204210205078125,0.18208675194382667,0.357476928858459,0.868507538941875
1761139739553269500,11.21426953125,-0.04133504995107651,0.1292228845015168,0.7807949878931045
1761139739563328300,11.224328369140625,-0.12252338686287402,-0.002594400407373905,0.5889098955124616
1761139739573387300,11.23438720703125,-0.24860066681504248,-0.1253483811557293,0.41305356239080426
1761139739583446300,11.2444462890625,-0.42168110548257826,-0.1968842158421874,0.32075664269383997
1761139739593505300,11.25450537109375,-0.3807072900593281,-0.14532792386710644,0.44386436878331004
1761139739603564300,11.264564208984375,-0.2698188114106655,-0.16666940258145332,0.6427937536522745
1761139739613623300,11.274623291015626,-0.3369049732118845,-0.33916151996701954,0.8836927600488066
1761139739623683300,11.284683349609375,-0.37110885610878463,-0.525952211818099,1.0124138325080274
1761139739633741300,11.2947412109375,-0.2566781748086214,-0.6698553635790944,1.0842016691941767
1761139739643801000,11.304801025390624,-0.4599743035197258,-0.7833662996858358,1.0984296626415102
1761139739653860400,11.3148603515625,-0.741192460823059,-0.842456786558032,0.8112583690874278
1761139739663919000,11.324919189453125,-0.388130133536458,-0.8943255054831505,0.18849882920952513
1761139739673978400,11.334978271484376,-0.4910083242088556,-1.014790498511493,-0.3931068259704858
1761139739684037000,11.345037109375,-0.6334282516747712,-1.1147890420943498,-0.6175934806179255
1761139739694096400,11.355096435546875,-0.5766770214051008,-1.2337614584773777,-0.5583140835775062
1761139739704155100,11.365155029296876,-0.6017623628228902,-1.5563371698245405,-0.4930776412962004
1761139739714214400,11.37521435546875,-0.6123503923326731,-1.608867859789729,-0.46688174482062456
1761139739724273200,11.385273193359374,-0.679817077884078,-1.4163368707209825,-0.26688454805705697
1761139739734332400,11.39533251953125,-0.6313187121748924,-1.0663532202273607,0.008134457778627984
1761139739744391200,11.40539111328125,-0.377311217880249,-0.5133692090988159,0.11900885766958817
1761139739754450400,11.415450439453124,-0.1905249099433422,-0.038432898768782614,0.0527621469337726
1761139739764509200,11.42550927734375,-0.5470359163790941,0.21794190917909145,0.213837652198039
1761139739774568200,11.435568115234375,-0.7928665339589118,0.5806114382445812,0.2299447739228606
1761139739784627200,11.445627197265624,-0.4287812928766012,0.9098118284285068,-0.12732039361475034
1761139739794686200,11.455686279296875,-0.31967443694770337,0.848023773035407,-0.5573508280359208
1761139739804745200,11.4657451171875,-0.5253519078373908,0.363195014244318,-0.7496388021290302
1761139739814804200,11.47580419921875,-0.7530933264970779,-0.1083896475702524,-0.883707811487466
1761139739824863200,11.48586328125,-0.883912248018384,-0.2741051104277372,-0.986659213526547
1761139739834922200,11.495922119140625,-0.9142530257463455,-0.3486912725955248,-0.6891624138563871
1761139739844981200,11.505981201171876,-0.7029127067893743,-0.32034020738005636,-0.4705489986239001
1761139739855040300,11.516040283203125,-0.4497071765273809,-0.27679274207651616,-0.4026552102342248
1761139739865099300,11.526099365234375,-0.5325993947476149,-0.28176936144530773,-0.012080971481278537
1761139739875158300,11.536158203125,-0.43282092365622515,-0.18088848206996916,0.051545112993940705
1761139739885217300,11.54621728515625,-0.2808323728561401,-0.03059212214052677,0.04818491584584117
1761139739895276300,11.5562763671875,-0.493288544100523,-0.04321896400153637,0.1268471683461219
1761139739905335300,11.566335205078126,-0.5153466466516256,-0.039786066943407056,-0.08942001255378126
1761139739915394300,11.576394287109375,-0.605972089472413,0.02556581841111183,-0.17517361155450342
1761139739925453300,11.586453369140624,-0.8933072683513164,0.011234510719776153,-0.08171221465542912
1761139739935512300,11.59651220703125,-1.1175514925450085,-0.01746609858572483,-0.04784048632234335
1761139739945571000,11.606571044921875,-1.15650870744884,0.0461585245847702,-0.1840731034554541
1761139739955630300,11.61663037109375,-0.9483955338448286,0.2124327903687954,-0.4528219475470483
1761139739965689000,11.626689208984375,-0.9372393490582704,0.24050503864288328,-0.5451994947321712
1761139739975748400,11.636748291015625,-1.1028723943293095,0.14529109898805617,-0.5168919763974845
1761139739985807000,11.64680712890625,-1.1753051778554915,0.01675122831463814,-0.43843905579894776
1761139739995866400,11.656866455078125,-1.1830039156645535,-0.14406886371672153,-0.2939044742666185
1761139740005925000,11.666925048828125,-1.02487671597898,-0.3870043443769216,-0.2737685719497502
1761139740015984400,11.676984375,-0.8747744173169135,-0.6613678134799004,-0.3929227746404707
1761139740026043100,11.687043212890625,-0.6711480337381363,-1.0256780954897402,-0.4749823414288461
1761139740036102400,11.697102294921875,-0.5941589020818472,-1.4305886834353208,-0.4521671369001269
1761139740046161200,11.7071611328125,-0.6618903760492801,-1.68040749386847,0.032249826219677924
1761139740056220400,11.717220458984375,-0.23883505960404872,-1.5104256057381629,0.012478373301029204
1761139740066279200,11.727279052734374,-0.15791794084906577,-1.3192185587495564,-1.3757728051424025
1761139740076338200,11.737338134765626,-1.540537835407257,-1.1312503475517033,-2.0912728985652325
1761139740086397200,11.747397216796875,-2.533388597050309,-0.75551383164227,-1.4176105439186095
1761139740096456200,11.757456298828124,-2.052182120409608,-0.3266571354418993,-0.359962900455296
1761139740106515200,11.76751513671875,-1.6692378650784492,-0.2567208449065685,0.5831681369900703
1761139740116574200,11.77757421875,-1.3516507557988167,-0.46434243560135363,1.6152923398792742
1761139740126633200,11.78763330078125,-1.3738853839606047,-0.7334504683941603,2.347796175073087
1761139740136692200,11.797692138671875,-1.4309154311716556,-1.0323650259077548,2.586928464058041
1761139740146751200,11.807751220703125,-1.5720365509986876,-1.1938009117498993,2.480935356235504
1761139740156810200,11.817810302734374,-1.6676456274509428,-0.789341282442212,2.4387647322431207
1761139740166870300,11.827870361328126,-1.6032365759044884,-0.17823825982213018,2.083684927654266
1761139740176929300,11.83792919921875,-1.3669535388708114,0.3003706015408039,1.520168416595459
1761139740186988300,11.84798828125,-1.120087148502469,0.6446329517781734,1.116114737740159
1761139740197047300,11.85804736328125,-1.0277484720230101,0.5318427311614156,0.9596309213474392
1761139740207106000,11.86810595703125,-1.1628402485579252,0.4580646705061197,0.8413350890517234
1761139740217165300,11.878165283203124,-1.1784008057832718,0.5230506451576948,0.71405486305058
1761139740227224000,11.88822412109375,-1.099204519471526,0.8579518773317336,0.3450751279249787
1761139740237283300,11.898283447265625,-0.9654588968485593,1.332792910593748,0.11318652645796537
1761139740247342000,11.908342041015626,-0.8977262538373469,1.6999498142063616,0.3121282593518495
1761139740257401300,11.9184013671875,-0.8074176218807697,1.965136289641261,0.8407511516839266
1761139740267460000,11.928460205078125,-0.34442075566947455,2.048412538743019,1.4461954178899525
1761139740277519000,11.93851904296875,0.12465981436967849,1.8364584718018768,1.9201777884960174
1761139740287578000,11.948578125,0.4291816903710365,1.6113555849522352,1.993049840222299
1761139740297637000,11.95863720703125,0.5108861601114273,1.9070126019746063,1.6268474608555434
1761139740307696000,11.968696044921876,0.3355237479865551,2.107255772855878,1.2556745995998382
1761139740317755100,11.978755126953125,0.09173135823607444,2.08981422418952,0.860358938473463
1761139740327814100,11.988814208984374,-0.12289631182849406,2.0306044948518274,0.410659360730648
1761139740337873200,11.998873046875,-0.32418753045797344,1.9808803867399691,-0.2370803248912096
1761139740347932200,12.00893212890625,-0.39144671073853965,1.795892652657628,-0.8918608689352869
1761139740357991200,12.0189912109375,-0.4555880512595176,1.655381189161539,-1.5124945209667087
1761139740368050200,12.02905029296875,-0.682556731981039,1.7141297307282686,-1.9796227878943085
1761139740378109200,12.039109130859375,-0.9151590346753596,1.7265812160223721,-2.0369076866492626
1761139740388168200,12.049168212890624,-0.8414835576117038,1.7605808085188268,-1.8247639423549173
1761139740398227200,12.059227294921875,-0.5164776965081691,1.8918270155414938,-1.4642638662829994
1761139740408286200,12.0692861328125,-0.2530219903886318,1.9316642281502485,-0.8767749434843659
1761139740418345200,12.07934521484375,-0.020130933880805967,1.9812620795339344,-0.19031652788966893
1761139740428404000,12.089404052734375,0.14919161355793475,2.0836247218996284,0.5740758989959955
1761139740438463200,12.099463134765625,0.20865970157086847,2.0990636985719204,1.0278303050875663
1761139740448522000,12.10952197265625,0.47701194756031035,2.047377934998274,0.9628180269509553
1761139740458581200,12.119581298828125,0.6565010842263698,2.0124320015624164,0.8083727306485176
1761139740468640000,12.129639892578124,0.688384999743104,1.9154124737903475,0.7061275771826505
1761139740478699300,12.13969921875,0.7839490680098533,1.7756939142376182,0.7510954306781291
1761139740488758000,12.149758056640625,0.9000473902612924,1.5873638839900492,0.9495353515297174
1761139740498817300,12.1598173828125,1.1340034456521273,1.305039811271429,1.2804191647559404
1761139740508876000,12.1698759765625,1.4572329447329044,0.9583845745481551,1.6280577134281395
1761139740518935300,12.179935302734375,1.5868343071579931,0.5560518742665648,1.8858201763421296
1761139740528994000,12.189994140625,1.627937301918864,0.12473448704108595,1.7892197507649659
1761139740539053300,12.20005322265625,1.4861936662793158,-0.23369331280142067,1.310593938267231
1761139740549112000,12.210112060546875,0.8010808200746774,-0.43340953719913955,1.0126280597805977
1761139740559171000,12.220171142578126,-0.43121758011281486,-0.7488420987933874,1.6691501867949963
1761139740569230000,12.23022998046875,0.316444953507185,-0.6368770769543945,1.706665386196971
1761139740579289000,12.2402890625,1.7262305028885603,-0.7188204700171947,2.0944529899060726
1761139740589348000,12.25034814453125,2.48830968439579,-0.49829234373718495,2.508020931559801
1761139740599407000,12.260406982421875,2.588650465545058,0.33687289757318795,2.595616797426343
1761139740609466000,12.270466064453124,2.6957792993992564,1.1234382855612783,2.681968216189742
1761139740619525000,12.280525146484376,2.916183214777708,1.5143915867596864,2.923400891071558
1761139740629584100,12.290584228515625,2.8813515553712845,1.7797174706652759,2.852543394038081
1761139740639643100,12.30064306640625,2.2939491418123246,1.8299993587903678,3.007520020738244
1761139740649702100,12.3107021484375,1.1469067663669585,1.1727338660627602,3.5346757631272077
1761139740659761200,12.32076123046875,0.6576929243594407,0.6595569646656513,3.4239971278369423
1761139740669821200,12.3308212890625,0.6425158134937285,0.7707903112292289,2.810752417013049
1761139740679880200,12.340880126953126,0.5440180298626422,1.0712227990251033,2.1662503981381653
1761139740689939200,12.350939208984375,0.4156833263725042,1.3342349260956048,1.437082137107849
1761139740699998200,12.360998291015624,0.4618132093846798,1.5106366181403397,0.7631663922220469
1761139740710057200,12.37105712890625,0.48670156692564487,1.321007780253887,-0.05997253040373325
1761139740720116200,12.3811162109375,0.47652913247942924,0.8152867478206753,-0.7625006217896938
1761139740730175200,12.39117529296875,0.6068348437815905,0.2548986709807068,-1.1565063693612814
1761139740740234200,12.401234130859375,0.7871347123086452,-0.30251988852918144,-1.370423260807991
1761139740750293200,12.411293212890625,0.7261871993929148,-0.71121299068816,-1.5276602336555718
1761139740760352300,12.421352294921874,0.6366226638019085,-0.9248539147377014,-1.592818057742715
1761139740770411300,12.431411376953125,0.5217307947307824,-1.0012772292047738,-1.550526729980111
1761139740780470000,12.441469970703125,0.35114977166354655,-0.8153041373468936,-1.4192524659067391
1761139740790529300,12.451529296875,0.45420624151229855,-0.7391388892941176,-1.2711515701949596
1761139740800588000,12.461588134765625,0.355291109251976,-0.8322549798868596,-1.127474336144328
1761139740810647300,12.471647216796875,0.1595113475203514,-0.9152233320832251,-1.094808914861083
1761139740820706000,12.4817060546875,-0.0004699555993080139,-0.8567600371986627,-1.1147446184307337
1761139740830765300,12.491765380859375,-0.021401099947094916,-0.7060995201319455,-1.1889309676259756
1761139740840824000,12.501823974609374,0.09292436741292476,-0.6083762280046939,-1.431809749662876
1761139740850883300,12.51188330078125,-0.09494155245423316,-0.6831377467393874,-1.821376053482294
1761139740860942000,12.521942138671875,-0.446540236929059,-0.841845084400475,-2.2452067382141947
1761139740871001300,12.53200146484375,-0.6687777974754572,-0.890728650034964,-2.5980881559759377
1761139740881060000,12.54206005859375,-0.8640911107391118,-0.8318032905966043,-2.9575200182944537
1761139740891119400,12.552119384765625,-1.1242401765286922,-0.8410133097514509,-3.173193690280616
1761139740901178000,12.56217822265625,-1.2859323752194642,-0.8124746130093932,-3.25009923530668
1761139740911237000,12.572237060546875,-1.328967799347639,-0.7034191950067877,-3.272353152690828
1761139740921296100,12.582296142578125,-1.422499485003948,-0.596184562690556,-3.127053285874426
1761139740931355100,12.592355224609374,-1.4904945783436296,-0.469826712231338,-2.896132068134844
1761139740941414100,12.6024140625,-1.4805091909021137,-0.33247429728806016,-2.673924610465765
1761139740951473200,12.61247314453125,-1.4949398673146963,-0.3741813954219222,-2.3889824642032385
1761139740961532200,12.6225322265625,-1.3336591720342634,-0.46530280506610866,-2.059378461654484
1761139740971591200,12.632591064453125,-1.0134002131968736,-0.4742603107646107,-1.8533938245117663
1761139740981650200,12.642650146484375,-0.9305109175860882,-0.5835843165755271,-1.6736840308323502
1761139740991709200,12.652709228515626,-0.8218623268187045,-0.7338260237082839,-1.439195183739066
