time,seconds_elapsed,z,y,x
1761139728407885000,0.068885009765625,0.32402849197387695,0.36902332305908203,-0.5286973118782043
1761139728417944300,0.0789443359375,0.3440432548522949,0.4323548376560211,-0.5357081294059753
1761139728428003000,0.089003173828125,0.3509123623371124,0.46989157795906067,-0.5219243764877319
1761139728438062000,0.09906201171875,0.3381892442703247,0.4650163948535919,-0.4816046357154846
1761139728448121300,0.109121337890625,0.3111102283000946,0.4337889552116394,-0.4308154881000519
1761139728458180000,0.11918017578125,0.2772764265537262,0.39763307571411133,-0.3816758990287781
1761139728468239400,0.1292392578125,0.22100169956684113,0.37788867950439453,-0.33955562114715576
1761139728478298000,0.139298095703125,0.14459462463855743,0.3737119734287262,-0.3014378547668457
1761139728488357400,0.149357421875,0.05326922982931137,0.36645805835723877,-0.27304375171661377
1761139728498416000,0.159416015625,-0.039436936378479004,0.35350197553634644,-0.25891390442848206
1761139728508475400,0.169475341796875,-0.1041267141699791,0.35215654969215393,-0.2352498322725296
1761139728518534100,0.1795341796875,-0.11479613929986954,0.3639167547225952,-0.1935485154390335
1761139728528593400,0.189593505859375,-0.08679486066102982,0.3881717622280121,-0.13314242660999298
1761139728538652200,0.199652099609375,-0.03835197165608406,0.3886376917362213,-0.05924644693732262
1761139728548711400,0.20971142578125,0.017839662730693817,0.3650077283382416,0.015036304481327534
1761139728558770200,0.219770263671875,0.0736452117562294,0.31267210841178894,0.0978478193283081
1761139728568829200,0.2298291015625,0.09757398068904877,0.25808611512184143,0.21299703419208527
1761139728578888200,0.23988818359375,0.11354608833789825,0.21541661024093628,0.3390723466873169
1761139728588947200,0.249947265625,0.13419783115386963,0.19088225066661835,0.4471066892147064
1761139728599006200,0.260006103515625,0.1564934104681015,0.2004796266555786,0.5278975963592529
1761139728609065200,0.270065185546875,0.17671692371368408,0.24287742376327515,0.5825933218002319
1761139728619124200,0.280124267578125,0.16738341748714447,0.27539581060409546,0.5803536772727966
1761139728629183200,0.290183349609375,0.12699657678604126,0.31363505125045776,0.5161731243133545
1761139728639242200,0.3002421875,0.09820347279310226,0.3868647515773773,0.4259624779224396
1761139728649301200,0.31030126953125,0.09434641152620316,0.475651353597641,0.33645525574684143
1761139728659360300,0.3203603515625,0.09093112498521805,0.47749632596969604,0.25224947929382324
1761139728669419300,0.330419189453125,0.06082887575030327,0.35788896679878235,0.185391366481781
1761139728679478300,0.340478271484375,0.01556432992219925,0.21611420810222626,0.14898721873760223
1761139728689537300,0.350537353515625,-0.004569167271256447,0.1423209309577942,0.1793549805879593
1761139728699596300,0.36059619140625,0.00754169188439846,0.11377600580453873,0.26793238520622253
1761139728709655300,0.3706552734375,0.04083067178726196,0.11711454391479492,0.3719770312309265
1761139728719714000,0.380714111328125,0.08749744296073914,0.10315074026584625,0.4532953202724457
1761139728729773300,0.390773193359375,0.1205882802605629,0.03229120746254921,0.47149109840393066
1761139728739832000,0.40083203125,0.1369434893131256,-0.06550874561071396,0.42288875579833984
1761139728749891300,0.410891357421875,0.11735061556100845,-0.17978765070438385,0.3185141384601593
1761139728759950000,0.4209501953125,0.06850782781839371,-0.3029090166091919,0.19173391163349152
1761139728770009300,0.43100927734375,-0.005623385310173035,-0.3813774585723877,0.07224185764789581
1761139728780068000,0.441068115234375,-0.06649597734212875,-0.38771554827690125,0.015442932024598122
1761139728790127400,0.45112744140625,-0.09992504119873047,-0.3251054286956787,0.04312516003847122
1761139728800186000,0.46118603515625,-0.09819672256708145,-0.20081853866577148,0.12964580953121185
1761139728810245400,0.471245361328125,-0.0372026152908802,-0.05660383030772209,0.2543666958808899
1761139728820304100,0.48130419921875,0.06760963052511215,0.08731542527675629,0.3872966468334198
1761139728830363400,0.49136328125,0.19949094951152802,0.20609506964683533,0.5101386904716492
1761139728840422100,0.501422119140625,0.306755006313324,0.27944114804267883,0.5992517471313477
1761139728850481200,0.511481201171875,0.3838564455509186,0.2958475351333618,0.6402995586395264
1761139728860540200,0.5215400390625,0.425249844789505,0.24546685814857483,0.622915506362915
1761139728870599200,0.53159912109375,0.4303111732006073,0.1434912383556366,0.5559926629066467
1761139728880658200,0.541658203125,0.40967175364494324,0.055623915046453476,0.4538659155368805
1761139728890717200,0.55171728515625,0.3758179247379303,0.0012962273322045803,0.3275649845600128
1761139728900776200,0.561776123046875,0.36241415143013,0.012949952855706215,0.19430947303771973
1761139728910835200,0.571835205078125,0.3705972731113434,0.08066428452730179,0.0686601996421814
1761139728920894200,0.581894287109375,0.4022642970085144,0.13737033307552338,-0.05921129137277603
1761139728930953200,0.591953125,0.4503708481788635,0.12933264672756195,-0.19652946293354034
1761139728941012200,0.60201220703125,0.4945472776889801,0.0633547455072403,-0.32419365644454956
1761139728951071200,0.6120712890625,0.51604163646698,-0.030920889228582382,-0.43760329484939575
1761139728961130200,0.622130126953125,0.5022263526916504,-0.13144153356552124,-0.5460684895515442
1761139728971189200,0.632189208984375,0.4711611568927765,-0.23834747076034546,-0.6603745222091675
1761139728981248300,0.642248291015625,0.4074123203754425,-0.25503483414649963,-0.7300073504447937
1761139728991307300,0.652307373046875,0.3181903064250946,-0.20769049227237701,-0.7817968130111694
1761139729001366000,0.662365966796875,0.2397530972957611,-0.09837779402732849,-0.7904253602027893
1761139729011425300,0.67242529296875,0.20171116292476654,0.04958689585328102,-0.7478622198104858
1761139729021484000,0.682484130859375,0.20919744670391083,0.19104793667793274,-0.643494188785553
1761139729031543300,0.692543212890625,0.24934247136116028,0.28451451659202576,-0.4928213357925415
1761139729041602000,0.70260205078125,0.3087908923625946,0.3025539815425873,-0.33234456181526184
1761139729051661300,0.712661376953125,0.35513734817504883,0.263160765171051,-0.200358048081398
1761139729061720000,0.722719970703125,0.38968151807785034,0.1631339192390442,-0.11798177659511566
1761139729071779300,0.732779296875,0.40092113614082336,0.030683457851409912,-0.09060528129339218
1761139729081838000,0.742838134765625,0.3916778862476349,-0.09099344164133072,-0.11386161297559738
1761139729091897300,0.7528974609375,0.3752094507217407,-0.1435202956199646,-0.168800488114357
1761139729101956000,0.7629560546875,0.3679281771183014,-0.12116188555955887,-0.2426050901412964
1761139729112015400,0.773015380859375,0.36674731969833374,-0.07659069448709488,-0.3325760066509247
1761139729122074000,0.78307421875,0.3712478280067444,-0.02598216012120247,-0.41196408867836
1761139729132133000,0.793133056640625,0.3816589117050171,0.02450444921851158,-0.4733976423740387
1761139729142192000,0.803192138671875,0.41136014461517334,0.059987131506204605,-0.5102551579475403
1761139729152251100,0.813251220703125,0.46216338872909546,0.09186862409114838,-0.5251928567886353
1761139729162310100,0.82331005859375,0.54359370470047,0.10619185864925385,-0.5188535451889038
1761139729172369200,0.833369140625,0.6693146228790283,0.07477694004774094,-0.4973652958869934
1761139729182428200,0.84342822265625,0.7761538028717041,-0.000767088495194912,-0.47174271941185
1761139729192487000,0.85348681640625,0.8636023998260498,-0.13841363787651062,-0.44651538133621216
1761139729202546200,0.863546142578125,0.8920251727104187,-0.3105143904685974,-0.4214431643486023
1761139729212605000,0.87360498046875,0.8594493865966797,-0.450112521648407,-0.3894367814064026
1761139729222664200,0.883664306640625,0.7935500741004944,-0.5415287613868713,-0.334066778421402
1761139729232723000,0.893722900390625,0.7199626564979553,-0.5711867809295654,-0.2861967384815216
1761139729242782200,0.9037822265625,0.6420526504516602,-0.5706184506416321,-0.25562945008277893
1761139729252841000,0.913841064453125,0.5662692189216614,-0.5476691722869873,-0.24516776204109192
1761139729262900200,0.923900146484375,0.5054136514663696,-0.5359707474708557,-0.2525218725204468
1761139729272959000,0.933958984375,0.4635213315486908,-0.5680192112922668,-0.25732406973838806
1761139729283018200,0.944018310546875,0.43981674313545227,-0.615797221660614,-0.25587910413742065
1761139729293077000,0.954076904296875,0.41511112451553345,-0.6101310849189758,-0.22822162508964539
1761139729303136000,0.964135986328125,0.37472936511039734,-0.6027184128761292,-0.18580864369869232
1761139729313195000,0.974195068359375,0.3307161033153534,-0.5659140348434448,-0.15711522102355957
1761139729323254000,0.98425390625,0.28650033473968506,-0.4912080764770508,-0.1372692883014679
1761139729333313000,0.99431298828125,0.23989742994308472,-0.3897552192211151,-0.14329655468463898
1761139729343372000,1.0043720703125,0.21144841611385345,-0.2706429064273834,-0.16421917080879211
1761139729353431000,1.01443115234375,0.20932507514953613,-0.14359283447265625,-0.1904555708169937
1761139729363490000,1.024489990234375,0.2309083342552185,-0.054737213999032974,-0.233115091919899
1761139729373549000,1.034549072265625,0.252351313829422,-0.03106517530977726,-0.29175499081611633
1761139729383608000,1.044608154296875,0.2650783658027649,-0.046321410685777664,-0.34063732624053955
1761139729393667000,1.0546669921875,0.27768442034721375,-0.07619009912014008,-0.36881810426712036
1761139729403726000,1.06472607421875,0.2861468195915222,-0.12714999914169312,-0.3777594566345215
1761139729413785000,1.07478515625,0.2839348018169403,-0.18979448080062866,-0.35881638526916504
1761139729423844000,1.084843994140625,0.2740321457386017,-0.23716242611408234,-0.3055802285671234
1761139729433903000,1.094903076171875,0.24906794726848602,-0.26592323184013367,-0.2320127934217453
1761139729443962000,1.104962158203125,0.20630624890327454,-0.24893242120742798,-0.15513017773628235
1761139729454020900,1.115020751953125,0.18565769493579865,-0.18751060962677002,-0.12284468859434128
1761139729464080100,1.125080078125,0.19866736233234406,-0.10517839342355728,-0.17555443942546844
1761139729474140000,1.135139892578125,0.2518043518066406,-0.04398614168167114,-0.2937295436859131
1761139729484198100,1.1451982421875,0.3182562291622162,-0.0026162262074649334,-0.4448113441467285
1761139729494257000,1.1552568359375,0.3902321457862854,-0.012803616002202034,-0.6148837208747864
1761139729504316200,1.165316162109375,0.45356571674346924,0.012687202543020248,-0.7775164842605591
1761139729514375000,1.175375,0.5064027905464172,0.06198391318321228,-0.8993393182754517
1761139729524434200,1.18543408203125,0.5480276942253113,0.03128437697887421,-0.9870733618736267
1761139729534493000,1.195492919921875,0.5300121903419495,0.0025006644427776337,-1.0163044929504395
1761139729544553000,1.205552978515625,0.4657006561756134,0.08565845340490341,-0.9706555008888245
1761139729554612000,1.215612060546875,0.3998843729496002,0.27108079195022583,-0.8983498811721802
1761139729564671000,1.2256708984375,0.3939577639102936,0.5060937404632568,-0.8293359875679016
1761139729574730000,1.23572998046875,0.44539859890937805,0.7500917315483093,-0.7538676261901855
1761139729584789000,1.2457890625,0.5331001877784729,0.9825173616409302,-0.6583948135375977
1761139729594848000,1.255847900390625,0.6388298273086548,1.1074550151824951,-0.5449649095535278
1761139729604907000,1.265906982421875,0.7233098745346069,1.128598690032959,-0.40514686703681946
1761139729614966000,1.275966064453125,0.7685233950614929,1.0945634841918945,-0.2229190170764923
1761139729625025000,1.28602490234375,0.7922684550285339,1.0357950925827026,-0.043715011328458786
1761139729635084000,1.296083984375,0.8028891086578369,0.9380828738212585,0.11747760325670242
1761139729645143000,1.30614306640625,0.7948293089866638,0.775229275226593,0.2485322803258896
1761139729655201800,1.316201904296875,0.7291501760482788,0.576036274433136,0.3550350069999695
1761139729665261000,1.326260986328125,0.6316846609115601,0.38408195972442627,0.4327841103076935
1761139729675319800,1.33631982421875,0.5156672596931458,0.22222460806369781,0.4834582209587097
1761139729685379000,1.346379150390625,0.37207239866256714,0.04564797878265381,0.5054550766944885
1761139729695437800,1.356437744140625,0.20507460832595825,-0.14287719130516052,0.48222512006759644
1761139729705497000,1.3664970703125,0.032391179352998734,-0.3367055356502533,0.44248467683792114
1761139729715555800,1.376555908203125,-0.12050914764404297,-0.5002654194831848,0.3976045548915863
1761139729725615000,1.386614990234375,-0.2483581304550171,-0.6242551207542419,0.35389983654022217
1761139729735674000,1.396674072265625,-0.3659433424472809,-0.7337033152580261,0.3231826722621918
1761139729745733000,1.406733154296875,-0.4479904770851135,-0.8028326034545898,0.33686918020248413
1761139729755792100,1.416792236328125,-0.48819437623023987,-0.8311678171157837,0.4091079533100128
1761139729765851100,1.42685107421875,-0.4721749722957611,-0.8132025599479675,0.5228388905525208
1761139729775910100,1.43691015625,-0.4071304500102997,-0.7440311908721924,0.6652708649635315
1761139729785969000,1.446968994140625,-0.2993708550930023,-0.6239401698112488,0.7964025735855103
1761139729796028200,1.457028076171875,-0.16045263409614563,-0.45433729887008667,0.8838623762130737
1761139729806087000,1.4670869140625,-0.0184054896235466,-0.2790038287639618,0.8906009793281555
1761139729816146200,1.477146240234375,0.11030641943216324,-0.15424324572086334,0.8180695176124573
1761139729826205000,1.487204833984375,0.20421884953975677,-0.07447193562984467,0.687836766242981
1761139729836264200,1.49726416015625,0.24129271507263184,-0.016460832208395004,0.556849479675293
1761139729846323000,1.507322998046875,0.2451176941394806,0.03338300436735153,0.4456210136413574
1761139729856382200,1.51738232421875,0.23381470143795013,0.06950851529836655,0.3232695460319519
1761139729866441000,1.52744091796875,0.23690924048423767,0.07242324203252792,0.18798242509365082
1761139729876500200,1.537500244140625,0.24577943980693817,0.030915744602680206,0.06997881829738617
1761139729886559000,1.54755908203125,0.2547086775302887,-0.023520121350884438,0.0035648751072585583
1761139729896618200,1.5576181640625,0.25827333331108093,-0.07771091908216476,-0.005455517675727606
1761139729906677000,1.567677001953125,0.2745437026023865,-0.13480275869369507,0.03379089757800102
1761139729916736000,1.577736083984375,0.30959197878837585,-0.21581797301769257,0.09091730415821075
1761139729926795000,1.587794921875,0.3436272144317627,-0.2811180353164673,0.1561369150876999
1761139729936854000,1.59785400390625,0.3516252338886261,-0.2867836654186249,0.21659386157989502
1761139729946913000,1.6079130859375,0.3585488498210907,-0.23352161049842834,0.2692982256412506
1761139729956972000,1.617971923828125,0.3817386031150818,-0.15296924114227295,0.2815018892288208
1761139729967031000,1.628031005859375,0.42503148317337036,-0.07738005369901657,0.24940058588981628
1761139729977090000,1.638090087890625,0.49461692571640015,-0.0404723659157753,0.18283088505268097
1761139729987149000,1.648149169921875,0.5648806095123291,-0.035877350717782974,0.0849544033408165
1761139729997208000,1.6582080078125,0.616672158241272,-0.044844746589660645,-0.01720285788178444
1761139730007267000,1.66826708984375,0.6328034996986389,-0.036867354065179825,-0.09176084399223328
1761139730017326000,1.678326171875,0.6258790493011475,-0.020902767777442932,-0.12232674658298492
1761139730027385000,1.688385009765625,0.6028571128845215,0.004760888870805502,-0.12682098150253296
1761139730037444000,1.698444091796875,0.5766803622245789,0.037947606295347214,-0.12723909318447113
1761139730047503000,1.708503173828125,0.554624617099762,0.06688157469034195,-0.1439916491508484
1761139730057562000,1.71856201171875,0.5342809557914734,0.10170187056064606,-0.1748931109905243
1761139730067621000,1.72862109375,0.5158638954162598,0.14225813746452332,-0.20378011465072632
1761139730077680000,1.73868017578125,0.49260413646698,0.1879262924194336,-0.2185332179069519
1761139730087739000,1.74873876953125,0.4677901268005371,0.21943175792694092,-0.21494248509407043
1761139730097798100,1.758798095703125,0.4527387320995331,0.21122229099273682,-0.1814574897289276
1761139730107857000,1.76885693359375,0.4420456290245056,0.16897055506706238,-0.1090652346611023
1761139730117916200,1.778916259765625,0.4256458580493927,0.0897015705704689,-0.024489890784025192
1761139730127975000,1.788974853515625,0.4104003310203552,-0.003965490497648716,0.06250607222318649
1761139730138034200,1.7990341796875,0.39027002453804016,-0.09679050743579865,0.13597789406776428
1761139730148093000,1.809093017578125,0.36921289563179016,-0.1362837553024292,0.19179598987102509
1761139730158152200,1.819152099609375,0.349392831325531,-0.14394059777259827,0.22509321570396423
1761139730168211000,1.8292109375,0.35435229539871216,-0.1684214472770691,0.22884243726730347
1761139730178270200,1.839270263671875,0.361354798078537,-0.21313272416591644,0.20537999272346497
1761139730188329700,1.849329833984375,0.36377525329589844,-0.2638798952102661,0.1644662320613861
1761139730198388500,1.859388427734375,0.36198481917381287,-0.30999597907066345,0.12755003571510315
1761139730208447700,1.86944775390625,0.346072793006897,-0.314172625541687,0.11400068551301956
1761139730218506500,1.879506591796875,0.310168594121933,-0.2595061659812927,0.12716229259967804
1761139730228565800,1.889565673828125,0.26108285784721375,-0.1609770506620407,0.15279005467891693
1761139730238624500,1.89962451171875,0.21292121708393097,-0.05734892562031746,0.16858020424842834
1761139730248683800,1.909683837890625,0.17193277180194855,0.022628409788012505,0.18307654559612274
1761139730258742800,1.91974267578125,0.142329603433609,0.1135236918926239,0.21915732324123383
1761139730268801800,1.9298017578125,0.15302225947380066,0.2657690644264221,0.2980900704860687
1761139730278860800,1.93986083984375,0.2042502909898758,0.402925580739975,0.38853874802589417
1761139730288919800,1.949919921875,0.2868845760822296,0.5240987539291382,0.46301984786987305
1761139730298978800,1.959978759765625,0.3991581201553345,0.7185901999473572,0.5117178559303284
1761139730309037600,1.97003759765625,0.4907957911491394,0.9203127026557922,0.4885089099407196
1761139730319096800,1.980096923828125,0.4780389666557312,0.9861282110214233,0.356639564037323
1761139730329155600,1.990155517578125,0.36004459857940674,0.825998842716217,0.09686727076768875
1761139730339214800,2.00021484375,0.18237794935703278,0.43709132075309753,-0.28751635551452637
1761139730349273600,2.010273681640625,-0.012350926175713539,-0.035105299204587936,-0.6828088164329529
1761139730359332900,2.020332763671875,-0.1858188509941101,-0.501113772392273,-0.935791015625
1761139730369391600,2.0303916015625,-0.3669322431087494,-0.9605717658996582,-0.9794721007347107
1761139730379451000,2.040450927734375,-0.5416263341903687,-1.2960714101791382,-0.8214779496192932
1761139730389509600,2.050509521484375,-0.6490311622619629,-1.3981198072433472,-0.4852553904056549
1761139730399569000,2.06056884765625,-0.6372085809707642,-1.2294272184371948,-0.048988860100507736
1761139730409627600,2.070627685546875,-0.5049505233764648,-0.9085522294044495,0.41240909695625305
1761139730419687000,2.08068701171875,-0.2750464677810669,-0.5496712923049927,0.8241060376167297
1761139730429745700,2.09074560546875,0.00551455607637763,-0.1981215924024582,1.1334326267242432
1761139730439804700,2.1008046875,0.2798539698123932,0.09209611266851425,1.308704137802124
1761139730449863700,2.11086376953125,0.4922140836715698,0.2623327672481537,1.34199059009552
1761139730459922700,2.120922607421875,0.638647735118866,0.3174287676811218,1.2517821788787842
1761139730469981700,2.130981689453125,0.7429043650627136,0.2945866882801056,1.102989673614502
1761139730480040700,2.141040771484375,0.7941020727157593,0.25272896885871887,0.932502806186676
1761139730490099700,2.151099609375,0.7958852648735046,0.21279016137123108,0.7509605288505554
1761139730500158700,2.16115869140625,0.7764484286308289,0.17540763318538666,0.584381103515625
1761139730510217700,2.1712177734375,0.7394930720329285,0.16483813524246216,0.4353877007961273
1761139730520276700,2.18127685546875,0.6901167035102844,0.18458440899848938,0.31392332911491394
1761139730530335700,2.191335693359375,0.6439756155014038,0.2104700654745102,0.21599651873111725
1761139730540394800,2.201394775390625,0.6229425072669983,0.19504742324352264,0.1364516168832779
1761139730550453800,2.211453857421875,0.5994138717651367,0.1326015740633011,0.07424943149089813
1761139730560512800,2.2215126953125,0.57899409532547,0.040754470974206924,0.04535812884569168
1761139730570571800,2.23157177734375,0.5571407675743103,-0.01199119258671999,0.06794717907905579
1761139730580630800,2.241630859375,0.5486921668052673,-0.019741524010896683,0.13494165241718292
1761139730590689500,2.251689453125,0.562050461769104,-0.013090595602989197,0.21973185241222382
1761139730600748800,2.261748779296875,0.5786725878715515,-0.003962877206504345,0.2977614104747772
1761139730610807600,2.2718076171875,0.590408444404602,0.014174794778227806,0.34405454993247986
1761139730620866800,2.28186669921875,0.6132943034172058,0.03194047510623932,0.35949981212615967
1761139730630925600,2.291925537109375,0.6464082598686218,0.05718329921364784,0.3458101451396942
1761139730640984800,2.30198486328125,0.6812868714332581,0.08359812945127487,0.31483227014541626
1761139730651043600,2.312043701171875,0.699066698551178,0.09881820529699326,0.28278279304504395
1761139730661102800,2.322102783203125,0.6943619251251221,0.11255957931280136,0.25615251064300537
1761139730671161600,2.33216162109375,0.659132719039917,0.15228275954723358,0.22966474294662476
1761139730681220900,2.342220947265625,0.6156355738639832,0.2314247190952301,0.20779193937778473
1761139730691279600,2.352279541015625,0.5736492276191711,0.30462026596069336,0.17419686913490295
1761139730701339000,2.3623388671875,0.5329220294952393,0.33747461438179016,0.13516850769519806
1761139730711397600,2.372397705078125,0.4924486577510834,0.32457512617111206,0.0897962749004364
1761139730721456600,2.38245654296875,0.445480614900589,0.28058528900146484,0.055397287011146545
1761139730731515600,2.392515625,0.3958778381347656,0.24779917299747467,0.015843544155359268
1761139730741574700,2.40257470703125,0.35695868730545044,0.21855685114860535,-0.031289614737033844
1761139730751633700,2.412633544921875,0.32962191104888916,0.20349635183811188,-0.08476460725069046
1761139730761692700,2.422692626953125,0.31527599692344666,0.2152976095676422,-0.12814244627952576
1761139730771751700,2.432751708984375,0.2960983216762543,0.2541119158267975,-0.15375001728534698
1761139730781810700,2.442810791015625,0.27974143624305725,0.3050597906112671,-0.18150202929973602
1761139730791869700,2.45286962890625,0.27443450689315796,0.3454774022102356,-0.2037949413061142
1761139730801928700,2.4629287109375,0.271624892950058,0.3924686312675476,-0.2049936205148697
1761139730811987700,2.47298779296875,0.28154855966567993,0.43088337779045105,-0.189448744058609
1761139730822046700,2.483046630859375,0.3032975196838379,0.44794705510139465,-0.15408195555210114
1761139730832105700,2.493105712890625,0.324903666973114,0.4457119405269623,-0.11563598364591599
1761139730842164700,2.503164794921875,0.34455326199531555,0.4186430275440216,-0.08931196480989456
1761139730852223700,2.5132236328125,0.35434964299201965,0.38040754199028015,-0.07739107310771942
1761139730862282800,2.52328271484375,0.33524465560913086,0.32356345653533936,-0.09141235053539276
1761139730872341800,2.533341796875,0.29359111189842224,0.2582237422466278,-0.15061798691749573
1761139730882400800,2.54340087890625,0.23294158279895782,0.24185115098953247,-0.23273496329784393
1761139730892459500,2.55345947265625,0.1747163087129593,0.2865234911441803,-0.321381539106369
1761139730902518800,2.563518798828125,0.1493648737668991,0.38803812861442566,-0.4065622091293335
1761139730912577500,2.57357763671875,0.1591268926858902,0.5197761058807373,-0.4757584035396576
1761139730922636800,2.58363671875,0.19131571054458618,0.6431528925895691,-0.5327279567718506
1761139730932695600,2.593695556640625,0.25128278136253357,0.8012063503265381,-0.5693113207817078
1761139730942754800,2.6037548828125,0.37587958574295044,1.009676218032837,-0.618237316608429
1761139730952813600,2.6138134765625,0.5192858576774597,1.0866597890853882,-0.7157396078109741
1761139730962872800,2.623872802734375,0.6561942100524902,1.1213458776474,-0.8264772891998291
1761139730972931600,2.633931640625,0.7963899374008179,1.1368328332901,-0.9097261428833008
1761139730982990800,2.643990966796875,0.9116150736808777,1.0784518718719482,-0.9659465551376343
1761139730993049600,2.654049560546875,0.9685032367706299,0.9359950423240662,-0.9951164126396179
1761139731003108900,2.66410888671875,0.9698278903961182,0.6865865588188171,-0.9587413668632507
1761139731013167600,2.674167724609375,0.9129436016082764,0.3165678083896637,-0.8541917204856873
1761139731023226600,2.6842265625,0.8424598574638367,-0.10364808887243271,-0.6859718561172485
1761139731033285600,2.69428564453125,0.7295267581939697,-0.4477405250072479,-0.4803217947483063
1761139731043344600,2.7043447265625,0.608311116695404,-0.6732897758483887,-0.259855717420578
1761139731053403600,2.714403564453125,0.48776841163635254,-0.7572389245033264,-0.06842979788780212
1761139731063462700,2.724462646484375,0.38559862971305847,-0.7725310921669006,0.055344339460134506
1761139731073521700,2.734521728515625,0.31573715806007385,-0.7824500799179077,0.12184424698352814
1761139731083580700,2.74458056640625,0.2711036205291748,-0.7778226137161255,0.13944880664348602
1761139731093639700,2.7546396484375,0.23721249401569366,-0.7537692189216614,0.13430051505565643
1761139731103698700,2.76469873046875,0.20829109847545624,-0.7216349840164185,0.12369287759065628
1761139731113757700,2.7747578125,0.19724850356578827,-0.6766113638877869,0.1250431090593338
1761139731123816700,2.784816650390625,0.20508192479610443,-0.6024865508079529,0.14416860044002533
1761139731133875700,2.794875732421875,0.21867883205413818,-0.49530404806137085,0.1988508552312851
1761139731143934700,2.804934814453125,0.2407628297805786,-0.38847294449806213,0.28545817732810974
1761139731153993700,2.81499365234375,0.2670045495033264,-0.21857094764709473,0.4024066925048828
1761139731164052700,2.825052734375,0.2955283522605896,-0.06822112202644348,0.5221117734909058
1761139731174111500,2.835111572265625,0.30963829159736633,-0.0684347078204155,0.5798736214637756
1761139731184170800,2.845170654296875,0.2841004431247711,-0.19793996214866638,0.5522263050079346
1761139731194229800,2.855229736328125,0.2592617869377136,-0.3857336640357971,0.44399502873420715
1761139731204288800,2.865288818359375,0.2407483160495758,-0.5976129174232483,0.27491599321365356
1761139731214347800,2.87534765625,0.2298818826675415,-0.7917677164077759,0.061484195291996
1761139731224406800,2.88540673828125,0.22959107160568237,-0.934704601764679,-0.20201854407787323
1761139731234465800,2.8954658203125,0.25679272413253784,-0.9646278023719788,-0.4658309519290924
1761139731244524800,2.90552490234375,0.3091523349285126,-0.8873348832130432,-0.6816236972808838
1761139731254583800,2.915583740234375,0.357932448387146,-0.7310588955879211,-0.8411285281181335
1761139731264642800,2.925642822265625,0.3936358392238617,-0.5296938419342041,-0.9098993539810181
1761139731274701800,2.935701904296875,0.37440750002861023,-0.2857760787010193,-0.8707196116447449
1761139731284760800,2.9457607421875,0.3580319881439209,-0.07922743260860443,-0.7110468745231628
1761139731294819800,2.95581982421875,0.3907819986343384,0.11509687453508377,-0.5008071660995483
1761139731304878600,2.965878662109375,0.450175017118454,0.2669588327407837,-0.2773189842700958
1761139731314937900,2.975937744140625,0.5382983684539795,0.42820385098457336,-0.05423776060342789
1761139731324996600,2.98599658203125,0.6666299700737,0.5950019359588623,0.1340988576412201
1761139731335056000,2.996055908203125,0.8738824725151062,0.8258541226387024,0.24582570791244507
1761139731345114600,3.006114501953125,1.1604068279266357,1.2149603366851807,0.24218037724494934
1761139731355174000,3.016173828125,1.578330159187317,1.653321623802185,0.1379595845937729
1761139731365232600,3.026232666015625,2.0886247158050537,2.1495566368103027,-0.1318684220314026
1761139731375292000,3.0362919921875,2.598226547241211,2.669856071472168,-0.5509880781173706
1761139731385350700,3.0463505859375,3.078857660293579,3.2076423168182373,-1.0367615222930908
1761139731395410000,3.056409912109375,3.470196485519409,3.6797378063201904,-1.5258961915969849
1761139731405468700,3.06646875,3.719769239425659,3.912334680557251,-1.951986312866211
1761139731415528000,3.07652783203125,3.8424012660980225,3.852099657058716,-2.277364492416382
1761139731425586700,3.086586669921875,3.8084070682525635,3.575876235961914,-2.47284197807312
1761139731435645700,3.096645751953125,3.594979763031006,3.141408681869507,-2.5100603103637695
1761139731445704700,3.10670458984375,3.2846641540527344,2.5579257011413574,-2.3521625995635986
1761139731455763700,3.116763671875,2.956650495529175,1.9288520812988281,-1.9989742040634155
1761139731465822700,3.12682275390625,2.6476972103118896,1.2671470642089844,-1.4752402305603027
1761139731475881700,3.1368818359375,2.350733757019043,0.7202081680297852,-0.7897284626960754
1761139731485940700,3.146940673828125,2.044395685195923,0.3826431632041931,0.032620009034872055
1761139731495999700,3.156999755859375,1.7498315572738647,0.04658503457903862,0.7724640965461731
1761139731506058800,3.167058837890625,1.600426435470581,-0.32494616508483887,1.2267341613769531
1761139731516117800,3.17711767578125,1.5947901010513306,-0.37390103936195374,1.5109795331954956
1761139731526176800,3.1871767578125,1.716684341430664,-0.17433200776576996,1.6371750831604004
1761139731536235800,3.19723583984375,1.8838878870010376,0.18039444088935852,1.6032581329345703
1761139731546294800,3.207294677734375,2.0556249618530273,0.6057475805282593,1.4596751928329468
1761139731556353800,3.217353759765625,2.2215073108673096,0.9022876620292664,1.207888126373291
1761139731566412800,3.227412841796875,2.3237783908843994,1.135001301765442,0.872715950012207
1761139731576471800,3.237471923828125,2.367452621459961,1.2242388725280762,0.4829401969909668
1761139731586530600,3.247530517578125,2.3591713905334473,1.2773561477661133,0.147438645362854
1761139731596589800,3.25758984375,2.2377631664276123,1.2780423164367676,-0.09104795753955841
1761139731606648600,3.267648681640625,2.027869939804077,1.2408965826034546,-0.2743344306945801
1761139731616707800,3.277707763671875,1.8001973628997803,1.1507444381713867,-0.4229256212711334
1761139731626766600,3.2877666015625,1.5965286493301392,1.0467051267623901,-0.5457471609115601
1761139731636825900,3.297825927734375,1.4011133909225464,0.9482051730155945,-0.6297056078910828
1761139731646884600,3.307884521484375,1.2334916591644287,0.8597850203514099,-0.6867508292198181
1761139731656943900,3.31794384765625,1.117309808731079,0.8085049390792847,-0.7211963534355164
1761139731667002600,3.328002685546875,1.0449753999710083,0.7664416432380676,-0.7313272953033447
1761139731677062000,3.338061767578125,0.9862476587295532,0.7015177607536316,-0.7330809831619263
1761139731687120600,3.34812060546875,0.9247597455978394,0.6063798069953918,-0.7426864504814148
1761139731697180000,3.358179931640625,0.8685587048530579,0.46895039081573486,-0.7432538270950317
1761139731707238700,3.36823876953125,0.7942764759063721,0.3633648455142975,-0.7448378801345825
1761139731717298000,3.3782978515625,0.6892223358154297,0.29686495661735535,-0.7579179406166077
1761139731727356700,3.388356689453125,0.5720560550689697,0.24421454966068268,-0.7846717834472656
1761139731737415700,3.398415771484375,0.46725520491600037,0.22844122350215912,-0.8068953156471252
1761139731747474700,3.408474609375,0.39331281185150146,0.21455363929271698,-0.828362226486206
1761139731757533700,3.41853369140625,0.3441135287284851,0.18222345411777496,-0.8320506811141968
1761139731767592700,3.4285927734375,0.29280930757522583,0.1594691425561905,-0.8225988149642944
1761139731777651700,3.438651611328125,0.23505501449108124,0.1675470471382141,-0.7715287804603577
1761139731787710700,3.448710693359375,0.20302917063236237,0.11676642298698425,-0.7189686298370361
1761139731797769700,3.458769775390625,0.19380465149879456,-0.007401125505566597,-0.6460150480270386
1761139731807828700,3.468828857421875,0.2000415027141571,-0.18535807728767395,-0.5472525358200073
1761139731817887700,3.4788876953125,0.19692979753017426,-0.36963582038879395,-0.43749335408210754
1761139731827946800,3.48894677734375,0.15597331523895264,-0.48740825057029724,-0.32333800196647644
1761139731838005800,3.499005859375,0.09180916845798492,-0.6140865087509155,-0.23598302900791168
1761139731848064800,3.509064697265625,0.009284459054470062,-0.7626160383224487,-0.17027033865451813
1761139731858123800,3.519123779296875,-0.08936148136854172,-0.8445342183113098,-0.09764072299003601
1761139731868182800,3.529182861328125,-0.19809968769550323,-0.8715381622314453,-0.025339899584650993
1761139731878241800,3.53924169921875,-0.3103988468647003,-0.8726328015327454,0.03713427856564522
1761139731888300500,3.549300537109375,-0.4274471700191498,-0.8700769543647766,0.07787132263183594
1761139731898359800,3.55935986328125,-0.5400326251983643,-0.8741142749786377,0.10479135811328888
1761139731908418800,3.569418701171875,-0.647039532661438,-0.8995775580406189,0.12263773381710052
1761139731918477800,3.579477783203125,-0.7287373542785645,-0.9152796268463135,0.1628596931695938
1761139731928536800,3.589536865234375,-0.7786548733711243,-0.9163579344749451,0.23231200873851776
1761139731938595800,3.599595947265625,-0.7948608994483948,-0.8943566679954529,0.33694183826446533
1761139731948654800,3.60965478515625,-0.7709832191467285,-0.8800475001335144,0.4586184620857239
1761139731958713900,3.6197138671875,-0.7170053720474243,-0.8752941489219666,0.5736011266708374
1761139731968772900,3.62977294921875,-0.6310111284255981,-0.8316510319709778,0.6892960071563721
1761139731978832000,3.639831787109375,-0.5087525844573975,-0.7139275670051575,0.8061897158622742
1761139731988891000,3.649890869140625,-0.3647381365299225,-0.5548804402351379,0.9231160879135132
1761139731998950000,3.659949951171875,-0.2144070863723755,-0.4240644574165344,1.0278950929641724
1761139732009009000,3.6700087890625,-0.08709866553544998,-0.38681483268737793,1.129089117050171
1761139732019067600,3.680067626953125,0.015119923278689384,-0.38167694211006165,1.2372124195098877
1761139732029127000,3.690126953125,0.09739961475133896,-0.3942103087902069,1.336788535118103
1761139732039185700,3.700185546875,0.18967129290103912,-0.4463574290275574,1.439784288406372
1761139732049245000,3.710244873046875,0.31207653880119324,-0.656488299369812,1.4990524053573608
1761139732059303700,3.7203037109375,0.4165724813938141,-0.9712316989898682,1.4178087711334229
1761139732069363000,3.730363037109375,0.47735166549682617,-1.257887363433838,1.2228672504425049
1761139732079421700,3.740421630859375,0.46987831592559814,-1.5418806076049805,0.9435911774635315
1761139732089481000,3.75048095703125,0.39211028814315796,-1.79731285572052,0.6352837085723877
1761139732099539700,3.760539794921875,0.2508634030818939,-1.9473562240600586,0.4282282590866089
1761139732109599000,3.770598876953125,0.07937847077846527,-2.0609123706817627,0.39700642228126526
1761139732119657700,3.78065771484375,-0.02317587472498417,-2.2245333194732666,0.5501556992530823
1761139732129717000,3.790717041015625,-0.02257719449698925,-2.3492941856384277,0.8149529695510864
1761139732139775700,3.800775634765625,0.026272837072610855,-2.1923604011535645,1.1134170293807983
1761139732149834800,3.810834716796875,0.1136879026889801,-1.9212127923965454,1.374402642250061
1761139732159893800,3.820893798828125,0.23256061971187592,-1.597833514213562,1.5323128700256348
1761139732169952800,3.830952880859375,0.3417113423347473,-1.5496326684951782,1.4856587648391724
1761139732180011800,3.84101171875,0.43510642647743225,-1.1600937843322754,1.5028867721557617
1761139732190070000,3.851070068359375,0.5072721838951111,-0.5467981696128845,1.448672890663147
1761139732200128800,3.861128662109375,0.6217893958091736,0.14698690176010132,1.253002643585205
1761139732210188000,3.87118798828125,0.8057493567466736,0.9458321332931519,1.0488276481628418
1761139732220246800,3.881246826171875,0.9851622581481934,1.7739934921264648,0.8231411576271057
1761139732230305800,3.891305908203125,1.1225271224975586,2.4762446880340576,0.5502369403839111
1761139732240364800,3.90136474609375,1.2249468564987183,3.125247001647949,0.23084062337875366
1761139732250423800,3.911423828125,1.2916771173477173,3.927187204360962,-0.1348065882921219
1761139732260482800,3.92148291015625,1.339471459388733,4.630877494812012,-0.6069200038909912
1761139732270541800,3.931541748046875,1.3175283670425415,5.000813007354736,-1.180192470550537
1761139732280600800,3.941600830078125,1.2837871313095093,4.748689651489258,-1.7479451894760132
1761139732290659800,3.951659912109375,1.2623594999313354,3.9208896160125732,-2.139658212661743
1761139732300718800,3.96171875,1.3923612833023071,3.2576382160186768,-2.280977249145508
1761139732310777900,3.97177783203125,1.745397686958313,2.829176902770996,-2.224970579147339
1761139732320836900,3.9818369140625,2.1065585613250732,2.591028928756714,-2.011094808578491
1761139732330896000,3.991895751953125,2.305699110031128,2.3206982612609863,-1.7907108068466187
1761139732340955000,4.001954833984375,2.35593581199646,2.1157450675964355,-1.551603078842163
1761139732351014000,4.012013916015625,2.279505968093872,1.9900413751602173,-1.305189847946167
1761139732361073000,4.022072998046875,2.122020959854126,1.8108772039413452,-1.0735583305358887
1761139732371132000,4.0321318359375,1.9377222061157227,1.4762592315673828,-0.8677327036857605
1761139732381191000,4.04219091796875,1.730857014656067,1.0438858270645142,-0.6775619983673096
1761139732391250000,4.05225,1.499220371246338,0.5934275388717651,-0.5034098625183105
1761139732401309000,4.062308837890625,1.2453420162200928,0.1836089938879013,-0.3397126793861389
1761139732411368000,4.072367919921875,0.9992079138755798,-0.11124768108129501,-0.1892925500869751
1761139732421427000,4.082427001953125,0.8110280632972717,-0.25645893812179565,-0.087077796459198
1761139732431486000,4.09248583984375,0.7137840390205383,-0.2689187824726105,-0.08536697924137115
1761139732441545000,4.102544921875,0.702716052532196,-0.17952489852905273,-0.14922574162483215
1761139732451604000,4.11260400390625,0.7203834056854248,-0.042225632816553116,-0.25413671135902405
1761139732461663000,4.1226630859375,0.7396804690361023,0.13078048825263977,-0.36018484830856323
1761139732471722000,4.132721923828125,0.7494204640388489,0.3079318404197693,-0.444667786359787
1761139732481781000,4.142781005859375,0.7457212805747986,0.42949554324150085,-0.5016223788261414
1761139732491840000,4.152840087890625,0.7179575562477112,0.4835348129272461,-0.5361130237579346
1761139732501899000,4.16289892578125,0.6707351803779602,0.4675324261188507,-0.5320519208908081
1761139732511957800,4.172957763671875,0.6246627569198608,0.3904182016849518,-0.4844287633895874
1761139732522017000,4.18301708984375,0.597755491733551,0.2768423557281494,-0.38429951667785645
1761139732532075800,4.19307568359375,0.5888176560401917,0.15153798460960388,-0.24505534768104553
1761139732542135000,4.203135009765625,0.5911976099014282,0.01893354393541813,-0.10310197621583939
1761139732552193800,4.21319384765625,0.5969103574752808,-0.10380435734987259,0.007166736759245396
1761139732562253000,4.223253173828125,0.5991718769073486,-0.1949063092470169,0.06924636662006378
1761139732572311800,4.233311767578125,0.5857681632041931,-0.2611987888813019,0.07841749489307404
1761139732582371000,4.24337109375,0.535078227519989,-0.2839295566082001,0.01960701309144497
1761139732592429800,4.253429931640625,0.474193811416626,-0.2589656114578247,-0.07599540799856186
1761139732602489000,4.263489013671875,0.4134577214717865,-0.22372478246688843,-0.17697371542453766
1761139732612547800,4.2735478515625,0.3579161465167999,-0.19605933129787445,-0.26640745997428894
1761139732622607000,4.283607177734375,0.3186200261116028,-0.1625318080186844,-0.3251973092556
1761139732632665900,4.293665771484375,0.27679508924484253,-0.13442373275756836,-0.3610799312591553
1761139732642724900,4.303724853515625,0.23481173813343048,-0.09146354347467422,-0.3759572207927704
1761139732652783900,4.313783935546875,0.19007381796836853,-0.03866397216916084,-0.38093066215515137
1761139732662843000,4.3238427734375,0.13762739300727844,-0.018352201208472252,-0.3799598217010498
1761139732672902000,4.33390185546875,0.07365959882736206,-0.021087002009153366,-0.36395928263664246
1761139732682961000,4.3439609375,-0.004899394698441029,-0.04518067464232445,-0.33251115679740906
1761139732693020000,4.35402001953125,-0.10273993760347366,-0.08979661017656326,-0.3049301207065582
1761139732703079000,4.364078857421875,-0.2087799459695816,-0.15854158997535706,-0.31513217091560364
1761139732713138000,4.374137939453125,-0.29895487427711487,-0.23639990389347076,-0.3739515244960785
1761139732723197000,4.384197021484375,-0.37193453311920166,-0.31702280044555664,-0.47263944149017334
1761139732733256000,4.394255859375,-0.4369116723537445,-0.3984082043170929,-0.5954524278640747
1761139732743315000,4.40431494140625,-0.507138192653656,-0.4946323037147522,-0.7243540287017822
1761139732753374000,4.4143740234375,-0.6027430295944214,-0.6132425665855408,-0.8071189522743225
1761139732763433000,4.424432861328125,-0.6840096116065979,-0.797393798828125,-0.8423015475273132
1761139732773492000,4.434491943359375,-0.7413208484649658,-0.9893962740898132,-0.815646767616272
1761139732783551000,4.444551025390625,-0.7650521397590637,-1.210637092590332,-0.7206779718399048
1761139732793610800,4.45461083984375,-0.7894778847694397,-1.4811570644378662,-0.5818833112716675
1761139732803670000,4.464669921875,-0.7798078060150146,-1.8333488702774048,-0.390857994556427
1761139732813728800,4.474728759765625,-0.7122889757156372,-2.2676122188568115,-0.12904022634029388
1761139732823788000,4.4847880859375,-0.5610172152519226,-2.726458787918091,0.19977934658527374
1761139732833846800,4.4948466796875,-0.33744752407073975,-3.143766164779663,0.5617266297340393
1761139732843906000,4.504906005859375,-0.19049766659736633,-3.332899332046509,0.9247438311576843
1761139732853964800,4.51496484375,-0.1498650163412094,-3.6411991119384766,1.2726727724075317
1761139732864023800,4.52502392578125,-0.12854523956775665,-4.153387069702148,1.4540678262710571
1761139732874082800,4.535082763671875,-0.10928844660520554,-4.647764682769775,1.3886611461639404
1761139732884141800,4.545141845703125,-0.14315174520015717,-4.897733688354492,1.139354944229126
1761139732894200800,4.555200927734375,-0.24388554692268372,-4.736839294433594,0.8729913830757141
1761139732904259800,4.565259765625,-0.3964124619960785,-4.255706310272217,0.6969292759895325
1761139732914318800,4.57531884765625,-0.5363191962242126,-3.639495372772217,0.6164422035217285
1761139732924377900,4.5853779296875,-0.583173930644989,-2.9145877361297607,0.6020104885101318
1761139732934436900,4.595436767578125,-0.5125151872634888,-2.116715431213379,0.6298066973686218
1761139732944495900,4.605495849609375,-0.34849217534065247,-1.3680440187454224,0.6668723821640015
1761139732954555000,4.615554931640625,-0.1799851804971695,-0.7356516718864441,0.6822369694709778
1761139732964614000,4.62561376953125,-0.08180442452430725,-0.18479588627815247,0.6564376950263977
1761139732974673000,4.6356728515625,-0.03816373646259308,0.29161596298217773,0.5985040664672852
1761139732984732000,4.64573193359375,0.02771347388625145,0.6548553705215454,0.5216686129570007
1761139732994791000,4.655791015625,0.14481772482395172,0.8885663747787476,0.46338963508605957
1761139733004850000,4.665849853515625,0.27495047450065613,1.073345422744751,0.43054813146591187
1761139733014908700,4.67590869140625,0.38400372862815857,1.181848406791687,0.39759019017219543
1761139733024968000,4.685968017578125,0.4542228579521179,1.1460752487182617,0.34994205832481384
1761139733035026700,4.696026611328125,0.47207242250442505,0.9758247137069702,0.27367815375328064
1761139733045086000,4.7060859375,0.4502256214618683,0.6971049904823303,0.17493405938148499
1761139733055144700,4.716144775390625,0.3741644322872162,0.31835609674453735,0.05233970656991005
1761139733065204000,4.726203857421875,0.2597174644470215,-0.13260404765605927,-0.08004007488489151
1761139733075262700,4.7362626953125,0.10372336208820343,-0.5591210126876831,-0.1846117526292801
1761139733085322000,4.746322021484375,-0.07964154332876205,-0.8729298114776611,-0.24354270100593567
1761139733095380700,4.756380615234375,-0.27349650859832764,-1.081239104270935,-0.24869538843631744
1761139733105440000,4.76643994140625,-0.4506473243236542,-1.182102918624878,-0.22688277065753937
1761139733115498800,4.776498779296875,-0.592898964881897,-1.163132905960083,-0.1891588270664215
1761139733125558000,4.78655810546875,-0.6741933822631836,-1.0403788089752197,-0.12895099818706512
1761139733135617000,4.796616943359375,-0.6808344721794128,-0.8382859230041504,-0.05905074253678322
1761139733145675800,4.80667578125,-0.6210360527038574,-0.5708518028259277,0.030761204659938812
1761139733155735000,4.816735107421875,-0.5655767917633057,-0.22613245248794556,0.11711499840021133
1761139733165793800,4.826793701171875,-0.437678724527359,0.02937036193907261,0.20851387083530426
1761139733175853000,4.83685302734375,-0.2349621057510376,0.259804904460907,0.27056312561035156
1761139733185912300,4.846912353515625,-0.014015128836035728,0.5281944274902344,0.3137219250202179
1761139733195971300,4.856971435546875,0.16235430538654327,0.8013697862625122,0.33258751034736633
1761139733206030300,4.8670302734375,0.26110225915908813,1.0332074165344238,0.32075515389442444
1761139733216089300,4.87708935546875,0.30427342653274536,1.2404335737228394,0.2664935290813446
1761139733226148400,4.8871484375,0.32975316047668457,1.459465742111206,0.1744704246520996
1761139733236207400,4.897207275390625,0.34876465797424316,1.6652241945266724,0.04846535623073578
1761139733246266400,4.907266357421875,0.36242347955703735,1.852936029434204,-0.0940476655960083
1761139733256325000,4.9173251953125,0.3437046706676483,1.9777430295944214,-0.2706647515296936
1761139733266384400,4.92738427734375,0.28316304087638855,2.0313713550567627,-0.478765070438385
1761139733276443100,4.937443115234375,0.1996859759092331,2.036245346069336,-0.6743835806846619
1761139733286502400,4.94750244140625,0.10793668031692505,2.0190417766571045,-0.8268601298332214
1761139733296561200,4.95756103515625,0.020429736003279686,1.961783766746521,-0.9592416286468506
1761139733306620400,4.967620361328125,-0.06276362389326096,1.861180305480957,-1.064884066581726
1761139733316679200,4.97767919921875,-0.1619970053434372,1.7061285972595215,-1.140272855758667
1761139733326738400,4.987738525390625,-0.2583012878894806,1.5509642362594604,-1.1562622785568237
1761139733336797200,4.997797119140625,-0.33853036165237427,1.4116963148117065,-1.132630467414856
1761139733346856400,5.0078564453125,-0.3806796669960022,1.3251292705535889,-1.089725136756897
1761139733356915200,5.017915283203125,-0.3519548177719116,1.2849812507629395,-1.050936222076416
1761139733366974500,5.027974365234375,-0.26362842321395874,1.2234759330749512,-1.0596630573272705
1761139733377033200,5.038033203125,-0.14653721451759338,1.0825878381729126,-1.1195906400680542
1761139733387092200,5.04809228515625,-0.029039820656180382,0.8858408331871033,-1.20632803440094
1761139733397151200,5.058151123046875,0.04858732596039772,0.616509199142456,-1.289935827255249
1761139733407210200,5.068210205078125,0.12094315886497498,0.34644585847854614,-1.327027440071106
1761139733417269200,5.078269287109375,0.2345709204673767,0.13499432802200317,-1.2994790077209473
1761139733427328300,5.088328369140625,0.36962994933128357,-0.05892482027411461,-1.2392358779907227
1761139733437387300,5.09838720703125,0.5092003345489502,-0.18573229014873505,-1.147321343421936
1761139733447446300,5.1084462890625,0.6453173160552979,-0.28053203225135803,-1.0111382007598877
1761139733457505300,5.11850537109375,0.8226766586303711,-0.3706986904144287,-0.8270965218544006
1761139733467564300,5.128564208984375,1.0154780149459839,-0.3821994662284851,-0.6177042722702026
1761139733477623300,5.138623291015625,1.1772522926330566,-0.2841000556945801,-0.4062008261680603
1761139733487682300,5.148682373046875,1.2729566097259521,-0.1046142727136612,-0.21156807243824005
1761139733497741300,5.1587412109375,1.3051345348358154,0.09230464696884155,-0.061158597469329834
1761139733507800300,5.16880029296875,1.2953554391860962,0.2534942328929901,0.033013615757226944
1761139733517859300,5.178859375,1.2573367357254028,0.3679960370063782,0.054680027067661285
1761139733527918300,5.18891845703125,1.1897860765457153,0.40766483545303345,0.003120393492281437
1761139733537977300,5.198977294921875,1.0916712284088135,0.35494861006736755,-0.09117920696735382
1761139733548036400,5.209036376953125,0.9754486083984375,0.26919153332710266,-0.16006198525428772
1761139733558095000,5.21909521484375,0.8720747828483582,0.2116249054670334,-0.17075005173683167
1761139733568154400,5.229154296875,0.7972903251647949,0.18426118791103363,-0.11592834442853928
1761139733578213000,5.239213134765625,0.7554728388786316,0.1622094213962555,-0.015953542664647102
1761139733588272400,5.2492724609375,0.7391878366470337,0.11056237667798996,0.0985710471868515
1761139733598331100,5.2593310546875,0.7451285123825073,0.056009113788604736,0.22229406237602234
1761139733608390400,5.269390380859375,0.763005256652832,0.030568361282348633,0.3357126712799072
1761139733618449200,5.27944921875,0.7864797115325928,-0.009600097313523293,0.38843047618865967
1761139733628508400,5.28950830078125,0.8242778778076172,-0.06965485960245132,0.38782304525375366
1761139733638567200,5.299567138671875,0.8837734460830688,-0.1292492151260376,0.3503430485725403
1761139733648626400,5.30962646484375,0.9544026255607605,-0.18692481517791748,0.3086591958999634
1761139733658685200,5.319685302734375,1.0124413967132568,-0.26344355940818787,0.2822962999343872
1761139733668744400,5.329744384765625,1.0507746934890747,-0.36123716831207275,0.2804473340511322
1761139733678803200,5.33980322265625,1.0462126731872559,-0.435632586479187,0.3359617292881012
1761139733688862200,5.3498623046875,1.013126015663147,-0.48473143577575684,0.45025634765625
1761139733698921200,5.359921142578125,0.9440555572509766,-0.4626940190792084,0.610751211643219
1761139733708980200,5.369980224609375,0.9048463702201843,-0.3570854663848877,0.8069836497306824
1761139733719039200,5.380039306640625,0.8714082837104797,-0.2948060929775238,0.9715502262115479
1761139733729098200,5.39009814453125,0.7632194757461548,-0.26247841119766235,1.0736273527145386
1761139733739157200,5.4001572265625,0.604728639125824,-0.16988830268383026,1.1142810583114624
1761139733749216300,5.41021630859375,0.47406280040740967,-0.06563124805688858,1.0894938707351685
1761139733759275300,5.420275146484375,0.3976537585258484,-0.032334811985492706,0.9824931621551514
1761139733769334300,5.430334228515625,0.35289204120635986,-0.04841247573494911,0.8124991655349731
1761139733779393500,5.4403935546875,0.3224087059497833,-0.08487647771835327,0.633478581905365
1761139733789452300,5.450452392578125,0.29301783442497253,-0.15216064453125,0.4764828681945801
1761139733799512300,5.46051220703125,0.2764521837234497,-0.282459020614624,0.36644771695137024
1761139733809571300,5.4705712890625,0.2719433903694153,-0.45707693696022034,0.30106493830680847
1761139733819630300,5.48063037109375,0.26445671916007996,-0.6279810070991516,0.3105529844760895
1761139733829689300,5.490689453125,0.25350165367126465,-0.7636738419532776,0.3569921553134918
1761139733839748400,5.500748291015625,0.25593313574790955,-0.8223429918289185,0.44598302245140076
1761139733849807400,5.510807373046875,0.27819573879241943,-0.7974297404289246,0.5627920627593994
1761139733859866400,5.520866455078125,0.34451910853385925,-0.627923846244812,0.6870517134666443
1761139733869925400,5.53092529296875,0.47027045488357544,-0.3268945813179016,0.7850687503814697
1761139733879984400,5.540984375,0.6480751037597656,0.10803955793380737,0.8126561641693115
1761139733890043100,5.551043212890625,0.8900954127311707,0.6703118085861206,0.7416106462478638
1761139733900102400,5.561102294921875,1.2016236782073975,1.3159326314926147,0.579157829284668
1761139733910161200,5.5711611328125,1.5177409648895264,1.9272806644439697,0.3495483994483948
1761139733920220400,5.581220458984375,1.8061416149139404,2.427596092224121,0.06283142417669296
1761139733930279200,5.591279052734375,2.0083563327789307,2.8054819107055664,-0.23193228244781494
1761139733940338400,5.60133837890625,2.084261894226074,3.0469305515289307,-0.5208104252815247
1761139733950397200,5.611397216796875,2.043079137802124,3.141199827194214,-0.7727002501487732
1761139733960456400,5.62145654296875,1.9303207397460938,3.1319093704223633,-0.9709656834602356
1761139733970515200,5.63151513671875,1.7938218116760254,2.986431360244751,-1.1034457683563232
1761139733980574500,5.641574462890625,1.6558294296264648,2.7541706562042236,-1.1672418117523193
1761139733990633200,5.65163330078125,1.4849505424499512,2.508209228515625,-1.1779807806015015
1761139734000692500,5.6616923828125,1.2806179523468018,2.220730781555176,-1.1432485580444336
1761139734010751200,5.671751220703125,1.0586867332458496,1.851258397102356,-1.0710997581481934
1761139734020810200,5.681810302734375,0.8409220576286316,1.438422679901123,-0.9363430142402649
1761139734030869200,5.691869140625,0.6234917044639587,1.029882788658142,-0.7337832450866699
1761139734040928300,5.70192822265625,0.4351936876773834,0.7023893594741821,-0.45213961601257324
1761139734050987300,5.7119873046875,0.29434823989868164,0.4690081477165222,-0.09405963867902756
1761139734061046300,5.72204638671875,0.2198697328567505,0.26597166061401367,0.28387966752052307
1761139734071105300,5.732105224609375,0.23049722611904144,0.11238376796245575,0.6629369854927063
1761139734081164300,5.742164306640625,0.3500715494155884,0.010915463790297508,0.988358199596405
1761139734091223300,5.752223388671875,0.5716466903686523,-0.08101046830415726,1.1933673620224
1761139734101282300,5.7622822265625,0.8542240858078003,-0.17654603719711304,1.2284624576568604
1761139734111341300,5.77234130859375,1.1913959980010986,-0.2665288746356964,1.099429965019226
1761139734121400300,5.782400390625,1.4123413562774658,-0.1669713854789734,0.8611018061637878
1761139734131459300,5.792459228515625,1.5051556825637817,0.03853664919734001,0.5780454874038696
1761139734141518300,5.802518310546875,1.492457389831543,0.14511209726333618,0.2833496630191803
1761139734151577300,5.812577392578125,1.4128096103668213,0.10428237169981003,0.018160367384552956
1761139734161636400,5.82263623046875,1.2924890518188477,-0.004428396001458168,-0.1758786141872406
1761139734171695400,5.8326953125,1.1954071521759033,-0.19562897086143494,-0.31216031312942505
1761139734181754400,5.84275439453125,1.0940316915512085,-0.37394359707832336,-0.3965441584587097
1761139734191813400,5.8528134765625,0.9930118322372437,-0.6450216174125671,-0.45634984970092773
1761139734201872600,5.86287255859375,0.9947508573532104,-1.0306092500686646,-0.5068879127502441
1761139734211931400,5.872931396484375,1.0541821718215942,-1.3795899152755737,-0.5003495812416077
1761139734221990700,5.88299072265625,1.0644725561141968,-1.2335805892944336,-0.49043169617652893
1761139734232049400,5.89304931640625,1.1088372468948364,-0.6870280504226685,-0.6504502892494202
1761139734242108700,5.903108642578125,1.331006407737732,-0.23595461249351501,-0.6681262254714966
1761139734252167400,5.91316748046875,1.4736933708190918,0.2765156328678131,-0.701974630355835
1761139734262226700,5.923226806640625,1.5188806056976318,0.7441750168800354,-0.7386738061904907
1761139734272285400,5.933285400390625,1.5303208827972412,1.0652412176132202,-0.7966302037239075
1761139734282344700,5.9433447265625,1.5413525104522705,1.3087109327316284,-0.9048563241958618
1761139734292403500,5.953403564453125,1.4993252754211426,1.4669818878173828,-1.0469233989715576
1761139734302462500,5.96346240234375,1.4044153690338135,1.5139541625976562,-1.1851619482040405
1761139734312521500,5.973521484375,1.2888649702072144,1.4822407960891724,-1.268242597579956
1761139734322580500,5.98358056640625,1.1811598539352417,1.4252145290374756,-1.2751401662826538
1761139734332639500,5.993639404296875,1.08238685131073,1.3533633947372437,-1.2088193893432617
1761139734342698500,6.003698486328125,1.0267579555511475,1.3004711866378784,-1.105492115020752
1761139734352757500,6.013757568359375,0.9931722283363342,1.2454997301101685,-0.9879761934280396
1761139734362816500,6.02381640625,0.9389643669128418,1.1975942850112915,-0.850598931312561
1761139734372875500,6.03387548828125,0.8357105255126953,1.1579707860946655,-0.699955403804779
1761139734382934500,6.0439345703125,0.6911320090293884,1.09097158908844,-0.5205954909324646
1761139734392993500,6.05399365234375,0.5301896929740906,0.990707278251648,-0.33565792441368103
1761139734403052500,6.064052490234375,0.369610458612442,0.8859207034111023,-0.1804206520318985
1761139734413111600,6.074111572265625,0.22342179715633392,0.7790657877922058,-0.07317125052213669
1761139734423170600,6.084170654296875,0.09585371613502502,0.7012271881103516,-0.03981463238596916
1761139734433229600,6.0942294921875,0.007846427150070667,0.6296276450157166,-0.06377630680799484
1761139734443288600,6.10428857421875,-0.04058874770998955,0.5596091151237488,-0.10249333828687668
1761139734453347300,6.114347412109375,-0.0683416798710823,0.49211713671684265,-0.12880383431911469
1761139734463406600,6.124406494140625,-0.1129847839474678,0.42753466963768005,-0.1474084109067917
1761139734473465300,6.13446533203125,-0.1710425615310669,0.37366941571235657,-0.15798741579055786
1761139734483524600,6.144524658203125,-0.2358172982931137,0.32729074358940125,-0.1681138277053833
1761139734493583400,6.154583251953125,-0.31605157256126404,0.3038155734539032,-0.17223529517650604
1761139734503642600,6.164642578125,-0.40867817401885986,0.2998112440109253,-0.1680472046136856
1761139734513701400,6.174701416015625,-0.5078467130661011,0.30933651328086853,-0.1659383326768875
1761139734523760600,6.1847607421875,-0.6191303730010986,0.335490345954895,-0.14276430010795593
1761139734533819400,6.1948193359375,-0.705599844455719,0.34389734268188477,-0.10075618326663971
1761139734543878700,6.204878662109375,-0.7575666308403015,0.33352726697921753,-0.062454868108034134
1761139734553937400,6.2149375,-0.7855621576309204,0.3151113986968994,-0.021790338680148125
1761139734563996700,6.22499658203125,-0.8128721117973328,0.3087099492549896,0.004991741850972176
1761139734574056700,6.235056640625,-0.8442004323005676,0.28121238946914673,0.018158502876758575
1761139734584115500,6.245115478515625,-0.8812490105628967,0.23374715447425842,0.017060481011867523
1761139734594174700,6.2551748046875,-0.8944961428642273,0.16185538470745087,0.028214067220687866
1761139734604233500,6.2652333984375,-0.8759855628013611,0.07752373069524765,0.05614503473043442
1761139734614292700,6.275292724609375,-0.8029540777206421,-0.021279599517583847,0.11389854550361633
1761139734624351500,6.2853515625,-0.6544415354728699,-0.14235329627990723,0.19792073965072632
1761139734634410500,6.295410400390625,-0.4234134256839752,-0.33670443296432495,0.28829455375671387
1761139734644469500,6.305469482421875,-0.13205879926681519,-0.5423944592475891,0.3885210156440735
1761139734654528500,6.315528564453125,0.1772286593914032,-0.7377287149429321,0.4874357283115387
1761139734664587500,6.32558740234375,0.4674745798110962,-0.9147570133209229,0.577998161315918
1761139734674646500,6.335646484375,0.6924647092819214,-1.050716519355774,0.65923011302948
1761139734684705500,6.34570556640625,0.8332729339599609,-1.1230900287628174,0.7311996221542358
1761139734694764500,6.3557646484375,0.9051498174667358,-1.0886439085006714,0.7981888055801392
1761139734704823600,6.365823486328125,0.9509002566337585,-0.9891948103904724,0.8278468251228333
1761139734714882600,6.375882568359375,0.9306361079216003,-0.9030528664588928,0.7857365012168884
1761139734724941600,6.385941650390625,0.8557410836219788,-0.8228440284729004,0.6966076493263245
1761139734735000600,6.39600048828125,0.7760186195373535,-0.781031608581543,0.5594397783279419
1761139734745059600,6.4060595703125,0.7162336111068726,-0.8271428942680359,0.3683110773563385
1761139734755118600,6.41611865234375,0.6475438475608826,-0.9460996389389038,0.16652148962020874
1761139734765177600,6.426177490234375,0.5410602688789368,-1.1015796661376953,-0.021000737324357033
1761139734775236600,6.436236572265625,0.4212588369846344,-1.2756531238555908,-0.15651002526283264
1761139734785295400,6.44629541015625,0.3117304742336273,-1.393011212348938,-0.1973506659269333
1761139734795354600,6.456354736328125,0.19584396481513977,-1.4696506261825562,-0.10215199738740921
1761139734805413400,6.466413330078125,0.07087966054677963,-1.5017350912094116,0.13507068157196045
1761139734815472600,6.47647265625,-0.06762827932834625,-1.5833467245101929,0.47280973196029663
1761139734825531400,6.486531494140625,-0.10486859828233719,-1.923370122909546,0.8520494103431702
1761139734835590700,6.496590576171875,-0.1261533796787262,-1.8106472492218018,1.2791435718536377
1761139734845649400,6.5066494140625,-0.23753716051578522,-1.4637953042984009,1.625428557395935
1761139734855708700,6.516708740234375,-0.34644654393196106,-1.0939053297042847,1.8005669116973877
1761139734865767400,6.526767333984375,-0.29545339941978455,-0.7427211999893188,1.83282470703125
1761139734875826700,6.53682666015625,-0.05644147843122482,-0.5432636141777039,1.7603873014450073
1761139734885885400,6.546885498046875,0.08998923748731613,-0.42479208111763,1.5457490682601929
1761139734895944700,6.55694482421875,0.17283838987350464,-0.545763373374939,1.310285210609436
1761139734906003500,6.56700341796875,0.17743687331676483,-0.7001702785491943,1.158590316772461
1761139734916062700,6.577062744140625,0.09203547984361649,-0.8527324795722961,1.046416163444519
1761139734926121500,6.58712158203125,-0.026157204061746597,-0.9540047645568848,0.9604924917221069
1761139734936180500,6.597180419921875,-0.14291317760944366,-1.0246946811676025,0.8422628045082092
1761139734946239500,6.607239501953125,-0.26492297649383545,-1.1662284135818481,0.7188628315925598
1761139734956298500,6.617298583984375,-0.3535041809082031,-1.3002442121505737,0.6170960664749146
1761139734966357500,6.627357421875,-0.418181449174881,-1.4736806154251099,0.5082350969314575
1761139734976416500,6.63741650390625,-0.46335551142692566,-1.7344034910202026,0.4050403833389282
1761139734986475500,6.6474755859375,-0.5107285976409912,-1.9242945909500122,0.32466059923171997
1761139734996534500,6.657534423828125,-0.5185700058937073,-1.69648277759552,0.2612205147743225
1761139735006593500,6.667593505859375,-0.45903241634368896,-1.3920869827270508,0.19730280339717865
1761139735016652500,6.677652587890625,-0.3914602994918823,-1.0611659288406372,0.11310425400733948
1761139735026711600,6.687711669921875,-0.35734841227531433,-0.7599820494651794,0.04488445445895195
1761139735036770600,6.6977705078125,-0.3431924879550934,-0.4837280511856079,0.022080136463046074
1761139735046829600,6.70782958984375,-0.34220898151397705,-0.21321053802967072,0.01784837245941162
1761139735056888600,6.717888671875,-0.3446277976036072,0.03543689101934433,-0.011928137391805649
1761139735066947600,6.727947509765625,-0.34804463386535645,0.2875082790851593,-0.0616469569504261
1761139735077006600,6.738006591796875,-0.3406102955341339,0.5409886240959167,-0.1249251514673233
1761139735087065300,6.7480654296875,-0.3160910904407501,0.797096312046051,-0.20787915587425232
1761139735097124600,6.75812451171875,-0.27197331190109253,1.0226693153381348,-0.3100970387458801
1761139735107183400,6.768183349609375,-0.22148668766021729,1.212964415550232,-0.3945927321910858
1761139735117242600,6.77824267578125,-0.16863186657428741,1.3413654565811157,-0.4529496729373932
1761139735127301400,6.78830126953125,-0.11238137632608414,1.4100408554077148,-0.4739484488964081
1761139735137360600,6.798360595703125,-0.053106412291526794,1.4251420497894287,-0.4814407229423523
1761139735147419400,6.80841943359375,-0.013269249349832535,1.4131423234939575,-0.4876003563404083
1761139735157478700,6.818478759765625,0.0015170266851782799,1.3800055980682373,-0.5149161219596863
1761139735167537400,6.828537353515625,-0.008883416652679443,1.3236722946166992,-0.5797971487045288
1761139735177596700,6.8385966796875,-0.06128869950771332,1.2525551319122314,-0.6699051260948181
1761139735187654700,6.848654541015625,-0.11855757981538773,1.178979754447937,-0.7812721133232117
1761139735197714000,6.8587138671875,-0.1623380184173584,1.1223444938659668,-0.8779380917549133
1761139735207774000,6.86877392578125,-0.19228500127792358,1.0942572355270386,-0.9390631914138794
1761139735217832700,6.878832763671875,-0.17239192128181458,1.063854455947876,-0.9811999201774597
1761139735227892000,6.88889208984375,-0.1677982360124588,1.059942364692688,-0.9945617914199829
1761139735237950700,6.89895068359375,-0.15335597097873688,1.0193195343017578,-0.9762210249900818
1761139735248010000,6.909010009765625,-0.13538868725299835,0.9245400428771973,-0.9336730241775513
1761139735258068700,6.91906884765625,-0.11690042912960052,0.7769418358802795,-0.8653892874717712
1761139735268128000,6.9291279296875,-0.0725361630320549,0.5776045322418213,-0.7863155007362366
1761139735278186800,6.939186767578125,-0.0015035354299470782,0.3528515100479126,-0.7133641242980957
1761139735288246000,6.94924609375,0.07781046628952026,0.10937358438968658,-0.6686935424804688
1761139735298304800,6.9593046875,0.14664432406425476,-0.11075957864522934,-0.6430494785308838
1761139735308364000,6.969364013671875,0.20821315050125122,-0.31482189893722534,-0.6236555576324463
1761139735318422800,6.9794228515625,0.26004886627197266,-0.4671594500541687,-0.6011733412742615
1761139735328481800,6.989481689453125,0.3136844038963318,-0.5442643761634827,-0.5667421221733093
1761139735338540800,6.999540771484375,0.36806267499923706,-0.5576378107070923,-0.5308380722999573
1761139735348599800,7.009599853515625,0.42585113644599915,-0.5324767827987671,-0.5047707557678223
1761139735358658800,7.019658935546875,0.5085837244987488,-0.47452518343925476,-0.49714863300323486
1761139735368717800,7.0297177734375,0.6268882751464844,-0.46402594447135925,-0.5297262668609619
1761139735378776800,7.03977685546875,0.7489423751831055,-0.49367013573646545,-0.6181808114051819
1761139735388835800,7.0498359375,0.8227236270904541,-0.5201941728591919,-0.7919845581054688
1761139735398894800,7.059894775390625,0.762697160243988,-0.4953549802303314,-1.042457103729248
1761139735408953900,7.069953857421875,0.5520778298377991,-0.412564754486084,-1.2793978452682495
1761139735419012900,7.080012939453125,0.24628077447414398,-0.2794581651687622,-1.4067972898483276
1761139735429072000,7.09007177734375,-0.054195962846279144,-0.1344791203737259,-1.4002403020858765
1761139735439131000,7.100130859375,-0.26913636922836304,-0.02430112287402153,-1.2616324424743652
1761139735449190000,7.11018994140625,-0.3615967929363251,-0.04144814983010292,-1.0401309728622437
1761139735459249000,7.120248779296875,-0.38221731781959534,-0.19005343317985535,-0.7646737694740295
1761139735469308000,7.130307861328125,-0.3805922567844391,-0.42728811502456665,-0.45751112699508667
1761139735479366700,7.14036669921875,-0.3966004550457001,-0.696447491645813,-0.16033415496349335
1761139735489426000,7.150426025390625,-0.40564990043640137,-0.9567323923110962,0.08711770176887512
1761139735499484700,7.160484619140625,-0.3706725239753723,-1.1392920017242432,0.2710563540458679
1761139735509544000,7.1705439453125,-0.29399317502975464,-1.1502008438110352,0.39026719331741333
1761139735519602700,7.180602783203125,-0.21500840783119202,-1.0190985202789307,0.44479143619537354
1761139735529662000,7.190661865234375,-0.12815527617931366,-0.8363286256790161,0.40938711166381836
1761139735539720700,7.200720703125,-0.031715553253889084,-0.5974170565605164,0.32166361808776855
1761139735549780000,7.210780029296875,0.03365253284573555,-0.31478214263916016,0.22691527009010315
1761139735559838700,7.220838623046875,0.06824319809675217,-0.024754598736763,0.16045714914798737
1761139735569898000,7.23089794921875,0.1053394302725792,0.22904172539710999,0.11009757965803146
1761139735579956700,7.240956787109375,0.17313651740550995,0.3875259757041931,0.07907793670892715
1761139735590016000,7.25101611328125,0.24115951359272003,0.49697017669677734,0.06561645865440369
1761139735600074800,7.26107470703125,0.2871919870376587,0.6116610765457153,0.05077656731009483
1761139735610133800,7.2711337890625,0.31619033217430115,0.7079039812088013,0.00807091686874628
1761139735620192800,7.28119287109375,0.34866073727607727,0.7761408090591431,-0.08767537027597427
1761139735630251800,7.291251708984375,0.37953317165374756,0.8071136474609375,-0.2306210845708847
1761139735640310800,7.301310791015625,0.36510488390922546,0.791295051574707,-0.4124038517475128
1761139735650369800,7.311369873046875,0.3136952221393585,0.7420492172241211,-0.6055599451065063
1761139735660428800,7.3214287109375,0.2306513488292694,0.6411341428756714,-0.7837895750999451
1761139735670487800,7.33148779296875,0.15507882833480835,0.49372074007987976,-0.879660964012146
1761139735680546800,7.341546875,0.10959629714488983,0.29786041378974915,-0.8436060547828674
1761139735690605800,7.351605712890625,0.07251204550266266,0.0951259434223175,-0.6756582856178284
1761139735700664800,7.361664794921875,0.00676365289837122,-0.08594195544719696,-0.42081543803215027
1761139735710723800,7.371723876953125,-0.06983578205108643,-0.23859673738479614,-0.11346694827079773
1761139735720782800,7.381782958984375,-0.09101156890392303,-0.3446759879589081,0.22749121487140656
1761139735730841900,7.391841796875,-0.04653278365731239,-0.3671474754810333,0.5858509540557861
1761139735740900900,7.40190087890625,0.012524406425654888,-0.34661322832107544,0.9055993556976318
1761139735750959900,7.4119599609375,0.08381802588701248,-0.30837610363960266,1.1455416679382324
1761139735761019000,7.422018798828125,0.1451474279165268,-0.32339414954185486,1.2507647275924683
1761139735771078000,7.432077880859375,0.17586272954940796,-0.4090416729450226,1.189729928970337
1761139735781136600,7.44213671875,0.16903617978096008,-0.4979954957962036,1.024395227432251
1761139735791196000,7.45219580078125,0.11636977642774582,-0.5087421536445618,0.8046280741691589
1761139735801254700,7.462254638671875,0.053269702941179276,-0.40189623832702637,0.6086992025375366
1761139735811314000,7.47231396484375,0.012775273993611336,-0.19622457027435303,0.465028315782547
1761139735821373700,7.482373779296875,-0.0197043064981699,0.03692128136754036,0.40281814336776733
1761139735831432700,7.4924326171875,-0.07872607558965683,0.13867026567459106,0.372434139251709
1761139735841491700,7.50249169921875,-0.18444432318210602,0.02466951496899128,0.30387622117996216
1761139735851550700,7.51255078125,-0.3055180311203003,-0.1996735781431198,0.21379666030406952
1761139735861609700,7.522609619140625,-0.41547414660453796,-0.3796536922454834,0.1574743092060089
1761139735871668700,7.532668701171875,-0.48989591002464294,-0.4201499819755554,0.13392478227615356
1761139735881728000,7.54272802734375,-0.5226511359214783,-0.31183430552482605,0.10624214261770248
1761139735891786800,7.552786865234375,-0.5047150254249573,-0.09290223568677902,0.051122162491083145
1761139735901846000,7.562845947265625,-0.45457953214645386,0.17015577852725983,-0.03295331448316574
1761139735911904800,7.57290478515625,-0.3908950984477997,0.4183301627635956,-0.12819568812847137
1761139735921964000,7.582964111328125,-0.2696743309497833,0.5824681520462036,-0.20410093665122986
1761139735932022800,7.593022705078125,-0.12725086510181427,0.6363492012023926,-0.2495483011007309
1761139735942082000,7.60308203125,0.04545292630791664,0.5829941034317017,-0.2447844296693802
1761139735952140800,7.613140869140625,0.1998709887266159,0.4049748182296753,-0.20707646012306213
1761139735962199800,7.62319970703125,0.25731903314590454,0.13142099976539612,-0.15148678421974182
1761139735972258800,7.6332587890625,0.21734100580215454,-0.037691596895456314,-0.041208747774362564
1761139735982317800,7.64331787109375,0.16726358234882355,-0.05448261648416519,0.14256878197193146
1761139735992376800,7.653376953125,0.1720423549413681,0.07992765307426453,0.3849811255931854
1761139736002435800,7.663435791015625,0.2680981755256653,0.40882861614227295,0.6849132776260376
1761139736012494800,7.673494873046875,0.4063524603843689,0.7954716682434082,0.9598596096038818
1761139736022553900,7.683553955078125,0.5313271880149841,1.0298992395401,1.1458107233047485
1761139736032612900,7.69361279296875,0.609491229057312,1.05912184715271,1.2316641807556152
1761139736042671900,7.703671875,0.6234552264213562,0.9410262107849121,1.222684383392334
1761139736052731000,7.71373095703125,0.5813578367233276,0.7195327281951904,1.1479231119155884
1761139736062790000,7.723789794921875,0.513484537601471,0.46080851554870605,1.0514684915542603
1761139736072849000,7.733848876953125,0.45538532733917236,0.2459912896156311,0.97439044713974
1761139736082908000,7.743907958984375,0.41740429401397705,0.08261217176914215,0.9526070952415466
1761139736092967000,7.753966796875,0.3864873945713043,-0.011013386771082878,0.9720537662506104
1761139736103026000,7.76402587890625,0.3407331705093384,-0.050940822809934616,1.0033434629440308
1761139736113084700,7.774084716796875,0.2878910005092621,-0.07409673929214478,0.9839319586753845
1761139736123144000,7.78414404296875,0.24697959423065186,-0.09921988099813461,0.8888846039772034
1761139736133202700,7.79420263671875,0.21501633524894714,-0.1463620960712433,0.7366178631782532
1761139736143262000,7.804261962890625,0.1814642995595932,-0.2007116824388504,0.5730078220367432
1761139736153320700,7.81432080078125,0.13497936725616455,-0.236385777592659,0.43255746364593506
1761139736163380000,7.8243798828125,0.1014978215098381,-0.2498845010995865,0.33788779377937317
1761139736173438700,7.834438720703125,0.0907900482416153,-0.2224227786064148,0.2754020392894745
1761139736183498000,7.844498046875,0.09488952159881592,-0.18561618030071259,0.23708109557628632
1761139736193556700,7.854556640625,0.09855962544679642,-0.14738383889198303,0.19240523874759674
1761139736203615700,7.86461572265625,0.09625253826379776,-0.1022963598370552,0.13637778162956238
1761139736213674800,7.8746748046875,0.08052124083042145,-0.04827360808849335,0.06044946610927582
1761139736223733800,7.884733642578125,0.07510809600353241,0.03404299542307854,-0.03897255286574364
1761139736233792800,7.894792724609375,0.08926093578338623,0.12168975919485092,-0.14274102449417114
1761139736243851800,7.904851806640625,0.1302146166563034,0.1728099286556244,-0.23389461636543274
1761139736253910800,7.914910888671875,0.18215851485729218,0.13538292050361633,-0.2822789251804352
1761139736263969500,7.924969482421875,0.23332415521144867,0.023153377696871758,-0.2826748788356781
1761139736274028800,7.93502880859375,0.2737847566604614,-0.12952697277069092,-0.2426518350839615
1761139736284087600,7.945087646484375,0.3225667476654053,-0.22658321261405945,-0.15236696600914001
1761139736294146800,7.955146728515625,0.3560381531715393,-0.29964756965637207,-0.032723117619752884
1761139736304205600,7.96520556640625,0.36235377192497253,-0.37323838472366333,0.0700501799583435
1761139736314264800,7.975264892578125,0.3508015275001526,-0.4423391819000244,0.14934954047203064
1761139736324323800,7.98532373046875,0.3190016448497772,-0.4950198829174042,0.20337368547916412
1761139736334382800,7.9953828125,0.2882658541202545,-0.5161518454551697,0.25122880935668945
1761139736344441900,8.00544189453125,0.2490096390247345,-0.5144357085227966,0.2996354401111603
1761139736354500900,8.0155009765625,0.19313785433769226,-0.5086579918861389,0.3405628800392151
1761139736364560000,8.025559814453125,0.12231282144784927,-0.46875759959220886,0.3786475360393524
1761139736374619000,8.035618896484374,0.055357225239276886,-0.3698808252811432,0.42407095432281494
1761139736384679000,8.045678955078126,-0.005334883462637663,-0.19978472590446472,0.4620308578014374
1761139736394736600,8.055736572265625,-0.03537880256772041,-0.01963760145008564,0.49262338876724243
1761139736404797000,8.065796875,-0.029940633103251457,0.10508717596530914,0.5025808215141296
1761139736414855700,8.075855712890625,0.0036194580607116222,0.15153057873249054,0.47999218106269836
1761139736424915000,8.0859150390625,0.052924029529094696,0.13128863275051117,0.4427832365036011
1761139736434973700,8.0959736328125,0.09213587641716003,0.0671733021736145,0.39647406339645386
1761139736445033000,8.106032958984375,0.11423292011022568,-0.035275898873806,0.3689044415950775
1761139736455091700,8.116091796875,0.10873669385910034,-0.13051798939704895,0.3549287021160126
1761139736465150700,8.126150634765626,0.09564285725355148,-0.15134786069393158,0.36755508184432983
1761139736475209700,8.136209716796875,0.06818699836730957,-0.11320499330759048,0.3842887878417969
1761139736485268700,8.146268798828125,0.01744319684803486,-0.10615022480487823,0.37688392400741577
1761139736495327700,8.15632763671875,-0.018072186037898064,-0.09707603603601456,0.34962114691734314
1761139736505386800,8.16638671875,-0.030719801783561707,-0.07796327769756317,0.28968751430511475
1761139736515445800,8.17644580078125,-0.04650968313217163,-0.0859527662396431,0.2076621651649475
1761139736525504800,8.1865048828125,-0.0667935237288475,-0.13136285543441772,0.10791348665952682
1761139736535563800,8.196563720703125,-0.07009796798229218,-0.1909465491771698,0.008607405237853527
1761139736545622800,8.206622802734374,-0.06956786662340164,-0.2745492160320282,-0.08475971221923828
1761139736555681800,8.216681884765626,-0.06862378120422363,-0.34715524315834045,-0.1557185798883438
1761139736565740800,8.22674072265625,-0.06753993779420853,-0.37032514810562134,-0.19775566458702087
1761139736575799800,8.2367998046875,-0.0552222840487957,-0.3305053114891052,-0.21079504489898682
1761139736585858800,8.24685888671875,-0.026335638016462326,-0.22364382445812225,-0.1820550262928009
1761139736595917800,8.256917724609375,0.010338487103581429,-0.10096611827611923,-0.12586311995983124
1761139736605976800,8.266976806640624,0.06720735877752304,0.05446341633796692,-0.05501771718263626
1761139736616035600,8.27703564453125,0.14368349313735962,0.20651207864284515,0.019387543201446533
1761139736626094800,8.2870947265625,0.2208252102136612,0.30819380283355713,0.0898333266377449
1761139736636153600,8.297153564453126,0.26328930258750916,0.3474067151546478,0.1670335829257965
1761139736646212900,8.307212890625,0.2743058204650879,0.3764825761318207,0.271339476108551
1761139736656271600,8.317271728515625,0.27154865860939026,0.3870907425880432,0.3810372054576874
1761139736666331000,8.327330810546876,0.2613365650177002,0.36299681663513184,0.48750314116477966
1761139736676389600,8.3373896484375,0.2504519522190094,0.3108622431755066,0.570152997970581
1761139736686449000,8.347448974609375,0.23599617183208466,0.22633732855319977,0.620856761932373
1761139736696507600,8.357507568359376,0.22503593564033508,0.16144035756587982,0.6534237861633301
1761139736706567000,8.36756689453125,0.22041501104831696,0.1260644644498825,0.6647578477859497
1761139736716625700,8.377625732421874,0.22394156455993652,0.083596371114254,0.6230604648590088
1761139736726685000,8.387684814453126,0.2286359965801239,0.023312527686357498,0.5237035751342773
1761139736736743700,8.39774365234375,0.22762319445610046,-0.04303773120045662,0.38359543681144714
1761139736746802700,8.407802734375,0.20315785706043243,-0.10384254902601242,0.21557097136974335
1761139736756861700,8.41786181640625,0.16709387302398682,-0.1431947499513626,0.03161977231502533
1761139736766920700,8.427920654296875,0.1297689974308014,-0.15122288465499878,-0.14118055999279022
1761139736776979700,8.437979736328124,0.10140182077884674,-0.13098792731761932,-0.27967026829719543
1761139736787038700,8.448038818359375,0.08503448963165283,-0.08557070791721344,-0.3587113320827484
1761139736797097700,8.45809765625,0.08709391206502914,-0.008834384381771088,-0.3645345866680145
1761139736807156700,8.46815673828125,0.11297505348920822,0.0570308156311512,-0.3000771701335907
1761139736817215700,8.4782158203125,0.1485343724489212,0.08919434249401093,-0.182808056473732
1761139736827274800,8.488274658203125,0.18005387485027313,0.10786996781826019,-0.040907956659793854
1761139736837333800,8.498333740234376,0.19549301266670227,0.10041951388120651,0.08213327825069427
1761139736847392800,8.508392822265625,0.1991870254278183,0.0608527697622776,0.1623872071504593
1761139736857451800,8.51845166015625,0.1878211945295334,0.01798359677195549,0.19890020787715912
1761139736867510800,8.5285107421875,0.16450394690036774,-0.0030415805522352457,0.1879899799823761
1761139736877569800,8.53856982421875,0.12829934060573578,-0.01976356841623783,0.14107386767864227
1761139736887628800,8.54862890625,0.09155730158090591,-0.03008316084742546,0.061874035745859146
1761139736897687600,8.5586875,0.05679799243807793,-0.00021314667537808418,-0.02807449921965599
1761139736907746800,8.568746826171875,0.03872138261795044,0.0478234626352787,-0.10498035699129105
1761139736917805600,8.5788056640625,0.033348988741636276,0.09309373795986176,-0.15835197269916534
1761139736927864800,8.58886474609375,0.03658314049243927,0.11388951539993286,-0.1765853762626648
1761139736937923600,8.598923583984375,0.036318689584732056,0.11521017551422119,-0.17184016108512878
1761139736947982800,8.60898291015625,0.02813538908958435,0.11865715682506561,-0.1616433709859848
1761139736958043000,8.61904296875,0.026972385123372078,0.12172592431306839,-0.15388265252113342
1761139736968101600,8.6291015625,0.02540125511586666,0.12496554106473923,-0.1430884450674057
1761139736978161000,8.639160888671874,0.02305500954389572,0.13574787974357605,-0.1259201169013977
1761139736988219600,8.6492197265625,0.02289401926100254,0.16941562294960022,-0.10460756719112396
1761139736998279000,8.65927880859375,0.031026514247059822,0.2016603797674179,-0.08280879259109497
1761139737008337700,8.669337646484376,0.04954354465007782,0.23150323331356049,-0.05805179104208946
1761139737018397000,8.67939697265625,0.07380254566669464,0.23780320584774017,-0.04243448004126549
1761139737028455700,8.68945556640625,0.08715816587209702,0.22394970059394836,-0.022144939750432968
1761139737038515000,8.699514892578126,0.083245187997818,0.22521497309207916,0.0037148857954889536
1761139737048573700,8.70957373046875,0.07219240069389343,0.22845743596553802,0.027871951460838318
1761139737058633000,8.719633056640625,0.07330133765935898,0.22754903137683868,0.04185035079717636
1761139737068691700,8.729691650390626,0.07917866855859756,0.19958145916461945,0.044408757239580154
1761139737078751000,8.7397509765625,0.09285826236009598,0.15208877623081207,0.04198741167783737
1761139737088809700,8.749809814453124,0.09701485186815262,0.10754186660051346,0.03386136516928673
1761139737098868700,8.75986865234375,0.09215351939201355,0.05469835549592972,0.01989681087434292
1761139737108927700,8.769927734375,0.0795581042766571,0.021942652761936188,-0.01497585978358984
1761139737118986800,8.77998681640625,0.07299554347991943,0.0070808809250593185,-0.06031937152147293
1761139737129045800,8.790045654296875,0.06951871514320374,0.02865014225244522,-0.10070109367370605
1761139737139104800,8.800104736328125,0.0798075720667839,0.08486653864383698,-0.13101744651794434
1761139737149163800,8.810163818359374,0.1054554134607315,0.16572511196136475,-0.135434091091156
1761139737159222800,8.820222900390625,0.14599111676216125,0.24801920354366302,-0.10899022966623306
1761139737169281800,8.83028173828125,0.2022639960050583,0.35767367482185364,-0.059920813888311386
1761139737179340800,8.8403408203125,0.2758021056652069,0.4935508072376251,-0.015816470608115196
1761139737189400600,8.850400634765625,0.3366028070449829,0.5985056757926941,-0.003113230224698782
1761139737199459800,8.8604599609375,0.3746149241924286,0.6749101877212524,-0.045812491327524185
1761139737209518600,8.8705185546875,0.3843029737472534,0.7006012201309204,-0.15383398532867432
1761139737219577900,8.880577880859375,0.3740447163581848,0.7131662368774414,-0.30289191007614136
1761139737229636600,8.89063671875,0.3542361259460449,0.7279374003410339,-0.4725089967250824
1761139737239696000,8.90069580078125,0.3364270329475403,0.7471992373466492,-0.6361536383628845
1761139737249754600,8.910754638671875,0.3199024498462677,0.7503421306610107,-0.771782636642456
1761139737259814000,8.92081396484375,0.3018033504486084,0.7247347235679626,-0.8738475441932678
1761139737269872600,8.93087255859375,0.2595103681087494,0.6852038502693176,-0.9448862671852112
1761139737279932000,8.940931884765625,0.20196743309497833,0.6459440588951111,-0.9856488704681396
1761139737289990700,8.95099072265625,0.14875301718711853,0.6481293439865112,-1.0350812673568726
1761139737300049700,8.961049560546876,0.11200246214866638,0.68498694896698,-1.0929409265518188
1761139737310108700,8.971108642578125,0.09043232351541519,0.7516655921936035,-1.14714515209198
1761139737320167700,8.981167724609374,0.07637829333543777,0.8639732599258423,-1.1936825513839722
1761139737330226700,8.991226806640626,0.10256914049386978,0.9596285223960876,-1.2636280059814453
1761139737340285700,9.00128564453125,0.1282699853181839,1.0379668474197388,-1.347043514251709
1761139737350344700,9.0113447265625,0.17504467070102692,1.1378684043884277,-1.4305120706558228
1761139737360403700,9.02140380859375,0.2320762723684311,1.212631106376648,-1.511328101158142
1761139737370462700,9.031462646484375,0.3249346911907196,1.2741725444793701,-1.5652852058410645
1761139737380521700,9.041521728515624,0.47545817494392395,1.407776117324829,-1.5407288074493408
1761139737390581000,9.0515810546875,0.6648657321929932,1.5731688737869263,-1.429886817932129
1761139737400639700,9.0616396484375,0.8604642152786255,1.6509803533554077,-1.2413954734802246
1761139737410699000,9.071698974609374,1.022329568862915,1.6746470928192139,-1.0185909271240234
1761139737420757800,9.0817578125,1.0828592777252197,1.5550857782363892,-0.7794992327690125
1761139737430816800,9.091816650390625,1.073468565940857,1.409787893295288,-0.5368973612785339
1761139737440875800,9.101875732421876,1.022350788116455,1.137457251548767,-0.29087474942207336
1761139737450934800,9.111934814453125,0.8959197402000427,0.6949130296707153,-0.035060081630945206
1761139737460993800,9.121993896484375,0.6833768486976624,0.3081349730491638,0.2604607939720154
1761139737471052800,9.132052734375,0.4330425262451172,0.049209583550691605,0.5840179324150085
1761139737481111800,9.14211181640625,0.27953392267227173,-0.12069662660360336,0.8746263384819031
1761139737491170800,9.1521708984375,0.23844607174396515,-0.0687829926609993,1.0783125162124634
1761139737501230600,9.162230712890626,0.2904738783836365,0.2618497610092163,1.2243338823318481
1761139737511288800,9.172288818359375,0.37134215235710144,0.6730548143386841,1.3780933618545532
1761139737521348600,9.1823486328125,0.5110374689102173,1.0939288139343262,1.558796763420105
1761139737531408000,9.192407958984376,0.5890021920204163,1.436354637145996,1.6659058332443237
1761139737541466600,9.202466552734375,0.518793523311615,1.608200192451477,1.6599416732788086
1761139737551526000,9.21252587890625,0.30343660712242126,1.6638811826705933,1.565182089805603
1761139737561584600,9.222584716796876,0.04777074605226517,1.5730581283569336,1.4359742403030396
1761139737571644000,9.232643798828125,-0.1767173558473587,1.2232125997543335,1.2738842964172363
1761139737581702700,9.24270263671875,-0.36112555861473083,0.5858887434005737,1.1266658306121826
1761139737591762000,9.252761962890625,-0.47471150755882263,-0.24508489668369293,0.973110020160675
1761139737601820700,9.262820556640625,-0.5696143507957458,-1.298401117324829,0.727590024471283
1761139737611880000,9.2728798828125,-0.5559556484222412,-2.6435515880584717,0.45047280192375183
1761139737621938700,9.282938720703125,-0.5118339657783508,-3.9077019691467285,0.2854582667350769
1761139737631997700,9.292997802734375,-0.42615821957588196,-4.984220504760742,0.1989016979932785
1761139737642056700,9.303056640625,-0.31542396545410156,-5.6409759521484375,0.05231305584311485
1761139737652115700,9.31311572265625,-0.2489611953496933,-4.132460594177246,-0.4659058153629303
1761139737662174700,9.3231748046875,-0.11150959134101868,-3.5910651683807373,-1.0791155099868774
1761139737672233700,9.333233642578126,0.10942059010267258,-2.4683637619018555,-1.4156243801116943
1761139737682292700,9.343292724609375,0.38823622465133667,-1.4790745973587036,-1.6244138479232788
1761139737692351700,9.353351806640624,0.5973508358001709,-0.9505435824394226,-1.6275616884231567
1761139737702410800,9.36341064453125,0.6638840436935425,-0.8159101009368896,-1.480961799621582
1761139737712469800,9.3734697265625,0.5679526329040527,-1.0133049488067627,-1.310152292251587
1761139737722528800,9.38352880859375,0.43637973070144653,-1.0875229835510254,-1.03444242477417
1761139737732587800,9.393587890625,0.34733155369758606,-1.0151164531707764,-0.7022263407707214
1761139737742646800,9.403646728515625,0.36225858330726624,-0.5279619097709656,-0.3754628300666809
1761139737752705800,9.413705810546874,0.558914065361023,-0.5734142661094666,-0.10110998898744583
1761139737762764800,9.423764892578125,0.7892974615097046,-0.5459845066070557,0.18579448759555817
1761139737772823800,9.43382373046875,0.9893077611923218,-0.40782150626182556,0.4150199890136719
1761139737782882800,9.4438828125,1.0881129503250122,-0.23171518743038177,0.5263457298278809
1761139737792941800,9.45394189453125,1.0851973295211792,-0.1237172931432724,0.5236243009567261
1761139737803000600,9.46400048828125,1.008933186531067,-0.12502197921276093,0.41242480278015137
1761139737813059800,9.474059814453126,0.8795572519302368,-0.22273479402065277,0.24089102447032928
1761139737823118600,9.48411865234375,0.7342141270637512,-0.29780903458595276,0.06765453517436981
1761139737833177900,9.494177734375,0.6270267963409424,-0.2115270346403122,-0.06734155118465424
1761139737843236600,9.504236572265626,0.6230941414833069,-0.06402173638343811,-0.178071528673172
1761139737853295900,9.5142958984375,0.7360638380050659,0.10979826003313065,-0.3021106421947479
1761139737863354600,9.524354736328124,0.9686235785484314,0.3334529399871826,-0.46851107478141785
1761139737873414000,9.534413818359376,1.3343132734298706,0.663515031337738,-0.6633031368255615
1761139737883472600,9.54447265625,1.783611536026001,0.9680948853492737,-0.9131545424461365
1761139737893532000,9.554531982421874,2.1697843074798584,0.9749981760978699,-1.214097023010254
1761139737903590700,9.564590576171875,2.132460117340088,1.2156872749328613,-1.565936803817749
1761139737913650000,9.57464990234375,1.810081124305725,2.0056071281433105,-1.9866615533828735
1761139737923708700,9.584708740234374,1.6031681299209595,2.2717385292053223,-2.3657357692718506
1761139737933767700,9.594767578125,1.5786471366882324,2.1206090450286865,-2.5431597232818604
1761139737943826700,9.60482666015625,1.6072932481765747,1.7639341354370117,-2.5433976650238037
1761139737953885700,9.6148857421875,1.5829519033432007,1.3432193994522095,-2.437561273574829
1761139737963944700,9.62494482421875,1.478546142578125,0.930692732334137,-2.2305071353912354
1761139737974003700,9.635003662109375,1.3213505744934082,0.5516268014907837,-1.9726673364639282
1761139737984062700,9.645062744140626,1.1154844760894775,0.2431565821170807,-1.6430034637451172
1761139737994121700,9.655121826171875,0.8957472443580627,0.05545257031917572,-1.2393823862075806
1761139738004180700,9.6651806640625,0.7154595255851746,-0.01610204204916954,-0.8435934782028198
1761139738014239700,9.67523974609375,0.5924755930900574,-0.04181992635130882,-0.5188659429550171
1761139738024298800,9.685298828125,0.5196815729141235,-0.12116881459951401,-0.3038748502731323
1761139738034357800,9.695357666015624,0.4996112883090973,-0.22587919235229492,-0.14008188247680664
1761139738044417800,9.705417724609376,0.5279601216316223,-0.103600412607193,-0.1322053223848343
1761139738054476800,9.715476806640625,0.5696497559547424,0.014515894465148449,-0.1975211650133133
1761139738064535800,9.725535888671875,0.5336794853210449,-0.0823075920343399,-0.13333313167095184
1761139738074594800,9.7355947265625,0.4607470631599426,-0.23450793325901031,0.07203665375709534
1761139738084653800,9.74565380859375,0.42658618092536926,-0.3958984315395355,0.29617416858673096
1761139738094712800,9.755712890625,0.3528406322002411,-0.6275434494018555,0.43211856484413147
1761139738104771800,9.765771728515626,0.18786314129829407,-0.8577132821083069,0.49457448720932007
1761139738114830800,9.775830810546875,-0.06998325884342194,-1.1127296686172485,0.4915160834789276
1761139738124889900,9.785889892578124,-0.38151904940605164,-1.373772144317627,0.4262731671333313
1761139738134948600,9.795948486328125,-0.7084261178970337,-1.4295183420181274,0.3105781376361847
1761139738145007900,9.8060078125,-0.887803852558136,-1.2949637174606323,0.09450546652078629
1761139738155066600,9.816066650390624,-0.85941082239151,-1.2410657405853271,-0.06988915055990219
1761139738165126000,9.8261259765625,-0.7893809080123901,-1.2869211435317993,-0.05117219313979149
1761139738175184600,9.8361845703125,-0.851832926273346,-1.5124316215515137,0.062167514115571976
1761139738185244000,9.846243896484374,-1.0209468603134155,-1.7808082103729248,0.26303166151046753
1761139738195302700,9.856302734375,-1.327698826789856,-1.9467474222183228,0.47571590542793274
1761139738205361700,9.866361572265625,-1.3192390203475952,-2.177621841430664,0.67843097448349
1761139738215420700,9.876420654296876,-1.02836275100708,-2.135504961013794,0.9974226951599121
1761139738225479700,9.886479736328125,-0.8104202747344971,-1.921807050704956,1.1936869621276855
1761139738235538700,9.89653857421875,-0.6252714991569519,-1.7597315311431885,1.1622686386108398
1761139738245597700,9.90659765625,-0.42359459400177,-1.454763412475586,1.069387674331665
1761139738255656700,9.91665673828125,-0.2205919474363327,-1.1187111139297485,1.0016223192214966
1761139738265715700,9.9267158203125,0.02362046390771866,-0.671734094619751,0.8177163600921631
1761139738275774700,9.936774658203126,0.263130784034729,-0.11476166546344757,0.38650578260421753
1761139738285833500,9.94683349609375,0.3403342366218567,0.0885738730430603,-0.0472448393702507
1761139738295892700,9.956892822265624,0.27983343601226807,0.1720590889453888,-0.45035886764526367
1761139738305951500,9.966951416015625,0.1984434872865677,0.1705370843410492,-0.8555724024772644
1761139738316010800,9.9770107421875,0.06155287101864815,0.09261879324913025,-1.2476990222930908
1761139738326069500,9.987069580078124,-0.1828659325838089,0.0550256073474884,-1.5942308902740479
1761139738336128800,9.997128662109375,-0.5332581400871277,0.17035497725009918,-1.8627079725265503
1761139738346187500,10.0071875,-0.8479114174842834,0.398646742105484,-2.0127081871032715
1761139738356246800,10.017246826171874,-1.0220261812210083,0.6142846345901489,-2.0652389526367188
1761139738366305500,10.027305419921875,-1.101690649986267,0.7015609741210938,-2.063114881515503
1761139738376364800,10.03736474609375,-1.125929594039917,0.7203000783920288,-2.0056262016296387
1761139738386423600,10.047423583984376,-1.146695613861084,0.6820589303970337,-1.8700971603393555
1761139738396482800,10.05748291015625,-1.1607683897018433,0.5823433995246887,-1.6597927808761597
1761139738406541600,10.06754150390625,-1.174973964691162,0.4838266968727112,-1.410529375076294
1761139738416600800,10.077600830078126,-1.2263474464416504,0.4331949055194855,-1.1756153106689453
1761139738426659600,10.08765966796875,-1.3489888906478882,0.3697565495967865,-0.9903972148895264
1761139738436718600,10.097718505859374,-1.556782841682434,0.2083180546760559,-0.8475354313850403
1761139738446777600,10.107777587890626,-1.8154325485229492,-0.06897452473640442,-0.7545932531356812
1761139738456836600,10.117836669921875,-2.126028537750244,-0.3315909504890442,-0.7160759568214417
1761139738466895600,10.1278955078125,-2.487227439880371,-0.5431578159332275,-0.7547224164009094
1761139738476954600,10.13795458984375,-2.85784912109375,-0.6948061585426331,-0.8576058149337769
1761139738487013600,10.148013671875,-3.223640203475952,-0.7845240235328674,-1.024247646331787
1761139738497072600,10.15807275390625,-3.562933921813965,-0.8166919946670532,-1.2227816581726074
1761139738507131600,10.168131591796875,-3.8570950031280518,-0.6817352771759033,-1.413644790649414
1761139738517190700,10.178190673828125,-4.083528518676758,-0.34267210960388184,-1.6238813400268555
1761139738527249700,10.188249755859376,-4.236451148986816,0.04529852047562599,-1.8620765209197998
1761139738537308700,10.19830859375,-4.291880130767822,0.5199934840202332,-2.1783509254455566
1761139738547367700,10.20836767578125,-4.225175380706787,0.992139995098114,-2.555863857269287
1761139738557426700,10.2184267578125,-4.020729064941406,1.4293535947799683,-2.900146722793579
1761139738567485700,10.228485595703125,-3.652752637863159,1.5401616096496582,-3.0728609561920166
1761139738577544700,10.238544677734374,-3.0916104316711426,1.2528576850891113,-3.0235800743103027
1761139738587604700,10.248604736328126,-2.403789758682251,0.9319829344749451,-2.794987916946411
1761139738597663700,10.258663818359375,-1.6810123920440674,0.7387146949768066,-2.4755501747131348
1761139738607722800,10.26872265625,-0.9688942432403564,0.6404658555984497,-2.121370315551758
1761139738617781800,10.27878173828125,-0.3002244532108307,0.5829319953918457,-1.7899558544158936
1761139738627840800,10.2888408203125,0.3064742684364319,0.5927953124046326,-1.5433554649353027
1761139738637899500,10.2988994140625,0.8737802505493164,0.6739796996116638,-1.338555097579956
1761139738647958800,10.308958740234376,1.3356839418411255,0.7994529008865356,-1.1434309482574463
1761139738658017500,10.319017578125,1.6385166645050049,0.7869672775268555,-0.964454710483551
1761139738668076800,10.329076904296874,1.793229341506958,0.7080979943275452,-0.7529978156089783
1761139738678135600,10.339135498046875,1.8969913721084595,0.6437581777572632,-0.4526270627975464
1761139738688194800,10.34919482421875,2.0677852630615234,0.36012619733810425,-0.08416514098644257
1761139738698253600,10.359253662109374,2.3020412921905518,-0.10333441942930222,0.32581275701522827
1761139738708312800,10.369312744140625,2.4823269844055176,-0.5803846120834351,0.7262115478515625
1761139738718371600,10.37937158203125,2.5185306072235107,-0.5926846861839294,1.063775897026062
1761139738728430800,10.389430908203124,2.293686866760254,0.26759034395217896,1.0713577270507812
1761139738738489600,10.399489501953125,1.9553016424179077,0.8358968496322632,0.7524555325508118
1761139738748548900,10.409548828125,1.652755856513977,1.2005079984664917,1.1377947330474854
1761139738758607600,10.419607666015626,1.4979761838912964,0.9888105988502502,1.6331037282943726
1761139738768666600,10.42966650390625,1.412009596824646,0.826901912689209,2.1728625297546387
1761139738778725600,10.4397255859375,1.0004327297210693,0.6045488119125366,2.423382043838501
1761139738788784600,10.44978466796875,0.37820670008659363,0.37495794892311096,2.337799549102783
1761139738798843600,10.45984375,-0.24643366038799286,0.14647114276885986,2.1099088191986084
1761139738808902700,10.469902587890624,-0.7462740540504456,0.0648585855960846,1.816766381263733
1761139738818961700,10.479961669921876,-1.0487549304962158,0.15267591178417206,1.5453376770019531
1761139738829020700,10.490020751953125,-1.1015363931655884,0.2855657637119293,1.3200297355651855
1761139738839079700,10.50007958984375,-0.9441410899162292,0.4154621958732605,1.0883108377456665
1761139738849138700,10.510138671875,-0.637736976146698,0.5045769214630127,0.7999598979949951
1761139738859197700,10.52019775390625,-0.25240740180015564,0.5206650495529175,0.43406450748443604
1761139738869256700,10.530256591796874,0.1407947540283203,0.35022035241127014,0.0027844589203596115
1761139738879315700,10.540315673828125,0.5107124447822571,0.3349784314632416,-0.390095591545105
1761139738889374700,10.550374755859375,0.789195716381073,0.2203751653432846,-0.7285670638084412
1761139738899433700,10.560433837890624,0.9451762437820435,0.1273951530456543,-0.9877323508262634
1761139738909492700,10.57049267578125,1.0419925451278687,0.04442249983549118,-1.1710838079452515
1761139738919551500,10.580551513671875,1.0698401927947998,-0.06848295778036118,-1.2928296327590942
1761139738929610800,10.59061083984375,1.0230095386505127,-0.05739355832338333,-1.3298805952072144
1761139738939669500,10.60066943359375,0.9480222463607788,0.08072186261415482,-1.2857316732406616
1761139738949728800,10.610728759765625,0.855591893196106,0.1794721484184265,-1.2040045261383057
1761139738959787500,10.62078759765625,0.7422114610671997,0.21173784136772156,-1.113018274307251
1761139738969846800,10.6308466796875,0.6339907050132751,0.17718811333179474,-1.0322009325027466
1761139738979905500,10.640905517578124,0.5278190970420837,0.07152090966701508,-0.9862053394317627
1761139738989964800,10.65096484375,0.39565786719322205,-0.02100929245352745,-0.9796881079673767
1761139739000023600,10.6610234375,0.25908923149108887,-0.0388929545879364,-0.9883209466934204
1761139739010082800,10.671082763671874,0.12774160504341125,-0.09422598779201508,-1.0167301893234253
1761139739020141600,10.6811416015625,0.012441773898899555,-0.02067357674241066,-1.0332744121551514
1761139739030200800,10.691200927734375,-0.07473839819431305,0.13112926483154297,-1.0550247430801392
1761139739040259600,10.701259521484374,-0.14047731459140778,0.29929232597351074,-1.0953549146652222
1761139739050318600,10.711318603515625,-0.17246881127357483,0.5108687877655029,-1.146685242652893
1761139739060377600,10.721377685546875,-0.16237770020961761,0.5503576397895813,-1.1725854873657227
1761139739070436600,10.7314365234375,-0.08812744170427322,0.5445639491081238,-1.130871057510376
1761139739080495600,10.74149560546875,0.05246616527438164,0.3933807611465454,-0.9661405086517334
1761139739090554600,10.7515546875,0.1819075047969818,0.15498176217079163,-0.7195065021514893
1761139739100613600,10.761613525390626,0.2664289176464081,-0.04549497738480568,-0.4775887727737427
1761139739110672600,10.771672607421875,0.33218902349472046,-0.12725694477558136,-0.3338789939880371
1761139739120732700,10.781732666015625,0.39999961853027344,-0.1452086865901947,-0.2346191555261612
1761139739130791700,10.791791748046874,0.5120422840118408,-0.08731182664632797,-0.1414247751235962
1761139739140850700,10.8018505859375,0.6740675568580627,-0.049209073185920715,-0.08949276059865952
1761139739150909700,10.81190966796875,0.8444640636444092,-0.1165204718708992,-0.08258851617574692
1761139739160968700,10.82196875,0.9699242115020752,-0.1617954969406128,-0.11402814090251923
1761139739171027700,10.83202783203125,1.041075587272644,-0.17327424883842468,-0.164516881108284
1761139739181086700,10.842086669921875,1.0953660011291504,-0.23476828634738922,-0.22261404991149902
1761139739191145200,10.852145263671876,1.1555976867675781,-0.3566012382507324,-0.28773605823516846
1761139739201204200,10.862204345703125,1.1987690925598145,-0.5028778910636902,-0.3766396641731262
1761139739211263200,10.87226318359375,1.2293440103530884,-0.6135799288749695,-0.5058807134628296
1761139739221322200,10.882322265625,1.2473665475845337,-0.6448008418083191,-0.6528857946395874
1761139739231381200,10.89238134765625,1.2711647748947144,-0.6363205313682556,-0.7594169974327087
1761139739241440300,10.902440185546874,1.2812267541885376,-0.6824414730072021,-0.7876964211463928
1761139739251499300,10.912499267578125,1.2145699262619019,-0.7490846514701843,-0.7733113765716553
1761139739261558300,10.922558349609375,1.08463716506958,-0.7707200050354004,-0.721088707447052
1761139739271617300,10.9326171875,0.918176531791687,-0.7740790247917175,-0.6531535983085632
1761139739281676300,10.94267626953125,0.745259165763855,-0.7276701331138611,-0.5630696415901184
1761139739291735300,10.9527353515625,0.585731565952301,-0.7110645174980164,-0.447144091129303
1761139739301794300,10.962794189453126,0.4620203971862793,-0.6879547834396362,-0.34235626459121704
1761139739311853000,10.97285302734375,0.37755370140075684,-0.6254804730415344,-0.24944789707660675
1761139739321912300,10.982912353515625,0.35590216517448425,-0.5927144289016724,-0.15292392671108246
1761139739331971000,10.99297119140625,0.40257272124290466,-0.6926549077033997,-0.030576979741454124
1761139739342030300,11.0030302734375,0.516032874584198,-0.8480653762817383,0.13400521874427795
1761139739352089000,11.013089111328124,0.6798380613327026,-1.0148175954818726,0.32822397351264954
1761139739362148400,11.0231484375,0.8006047606468201,-1.1761689186096191,0.5056490302085876
1761139739372207000,11.03320703125,0.8386618494987488,-1.2767599821090698,0.5987033843994141
1761139739382266400,11.043266357421874,0.8088820576667786,-1.268457055091858,0.5867066383361816
1761139739392325000,11.0533251953125,0.7512967586517334,-1.1626509428024292,0.48295944929122925
1761139739402384400,11.06338427734375,0.7333658337593079,-1.0672839879989624,0.3184424638748169
1761139739412443100,11.073443115234374,0.8101303577423096,-0.9815238118171692,0.17338542640209198
1761139739422502400,11.08350244140625,0.9747562408447266,-0.8506289720535278,0.1007617861032486
1761139739432561200,11.09356103515625,1.1364634037017822,-0.892917275428772,0.045169897377491
1761139739442620200,11.1036201171875,1.2587846517562866,-0.9827496409416199,-0.02555382438004017
1761139739452679200,11.11367919921875,1.296355962753296,-1.0803989171981812,-0.14735163748264313
1761139739462738200,11.12373828125,1.248801350593567,-1.0593236684799194,-0.3344760239124298
1761139739472797400,11.13379736328125,1.1715747117996216,-0.9660804271697998,-0.5679497718811035
1761139739482856200,11.143856201171875,1.0915964841842651,-0.8870229125022888,-0.7916550636291504
1761139739492915500,11.15391552734375,1.0471166372299194,-0.8417255282402039,-0.9631890058517456
1761139739502974200,11.16397412109375,1.0390164852142334,-0.811694324016571,-1.0912065505981445
1761139739513033500,11.174033447265625,1.0606290102005005,-0.789281964302063,-1.1960102319717407
1761139739523092200,11.18409228515625,1.123835563659668,-0.7765163779258728,-1.279313087463379
1761139739533151500,11.1941513671875,1.1792415380477905,-0.8240569829940796,-1.2331132888793945
1761139739543210200,11.204210205078125,1.2339338064193726,-0.8950947523117065,-1.1041443347930908
1761139739553269500,11.21426953125,1.27131187915802,-0.8970585465431213,-0.907944917678833
1761139739563328300,11.224328369140625,1.292112946510315,-0.8577311038970947,-0.6887926459312439
1761139739573387300,11.23438720703125,1.2856087684631348,-0.8010066151618958,-0.4679878056049347
1761139739583446300,11.2444462890625,1.2756930589675903,-0.702620267868042,-0.27257639169692993
1761139739593505300,11.25450537109375,1.277721881866455,-0.586512565612793,-0.10956137627363205
1761139739603564300,11.264564208984375,1.2939047813415527,-0.562712550163269,0.04088423028588295
1761139739613623300,11.274623291015626,1.3037800788879395,-0.603222131729126,0.189190074801445
1761139739623683300,11.284683349609375,1.301116704940796,-0.6452757716178894,0.31061965227127075
1761139739633741300,11.2947412109375,1.2796181440353394,-0.6761902570724487,0.3938271701335907
1761139739643801000,11.304801025390624,1.20773446559906,-0.6886985301971436,0.4196176528930664
1761139739653860400,11.3148603515625,1.0409526824951172,-0.6240683794021606,0.30819979310035706
1761139739663919000,11.324919189453125,0.7811837196350098,-0.41261935234069824,0.107331782579422
1761139739673978400,11.334978271484376,0.49188268184661865,-0.1497778743505478,-0.15594884753227234
1761139739684037000,11.345037109375,0.21744906902313232,0.10786224901676178,-0.4533725082874298
1761139739694096400,11.355096435546875,-0.04751229286193848,0.27164027094841003,-0.7047938704490662
1761139739704155100,11.365155029296876,-0.27207329869270325,0.37727218866348267,-0.8746951222419739
1761139739714214400,11.37521435546875,-0.4209546744823456,0.4432442784309387,-0.9799709916114807
1761139739724273200,11.385273193359374,-0.4807130694389343,0.4312513768672943,-1.0292495489120483
1761139739734332400,11.39533251953125,-0.4454866349697113,0.3429955542087555,-1.0493882894515991
1761139739744391200,11.40539111328125,-0.3350130617618561,0.11200889199972153,-1.0137001276016235
1761139739754450400,11.415450439453124,-0.18009857833385468,-0.12071117013692856,-0.8925081491470337
1761139739764509200,11.42550927734375,-0.025533098727464676,-0.3349681794643402,-0.7150245904922485
1761139739774568200,11.435568115234375,0.07856587320566177,-0.5067154765129089,-0.5876586437225342
1761139739784627200,11.445627197265624,0.09421946853399277,-0.5957705974578857,-0.5194267630577087
1761139739794686200,11.455686279296875,0.01397788804024458,-0.6582432985305786,-0.4516868591308594
1761139739804745200,11.4657451171875,-0.12958639860153198,-0.6607134342193604,-0.39052021503448486
1761139739814804200,11.47580419921875,-0.3057664930820465,-0.5811653733253479,-0.37120217084884644
1761139739824863200,11.48586328125,-0.4877874255180359,-0.5400347709655762,-0.4191763997077942
1761139739834922200,11.495922119140625,-0.6830591559410095,-0.4280911982059479,-0.5637778043746948
1761139739844981200,11.505981201171876,-0.868143618106842,-0.28790798783302307,-0.7920594215393066
1761139739855040300,11.516040283203125,-1.0131112337112427,-0.2166394144296646,-1.0257598161697388
1761139739865099300,11.526099365234375,-1.1290825605392456,-0.034945081919431686,-1.2066380977630615
1761139739875158300,11.536158203125,-1.2033731937408447,0.10572761297225952,-1.3146940469741821
1761139739885217300,11.54621728515625,-1.227225422859192,0.09754909574985504,-1.3112834692001343
1761139739895276300,11.5562763671875,-1.223020076751709,0.04958636686205864,-1.1908869743347168
1761139739905335300,11.566335205078126,-1.1950539350509644,-0.04034091532230377,-0.9735054969787598
1761139739915394300,11.576394287109375,-1.1580842733383179,-0.20020408928394318,-0.709435760974884
1761139739925453300,11.586453369140624,-1.13707435131073,-0.3190474808216095,-0.47013673186302185
1761139739935512300,11.59651220703125,-1.139467716217041,-0.34837526082992554,-0.29591408371925354
1761139739945571000,11.606571044921875,-1.192664623260498,-0.40138593316078186,-0.2078395038843155
1761139739955630300,11.61663037109375,-1.2748796939849854,-0.4037124514579773,-0.1726042777299881
1761139739965689000,11.626689208984375,-1.35154390335083,-0.3861961364746094,-0.14477330446243286
1761139739975748400,11.636748291015625,-1.4096418619155884,-0.3438127338886261,-0.11261138319969177
1761139739985807000,11.64680712890625,-1.4413200616836548,-0.31405454874038696,-0.06205681338906288
1761139739995866400,11.656866455078125,-1.4832794666290283,-0.31691399216651917,-0.019663812592625618
1761139740005925000,11.666925048828125,-1.579342007637024,-0.3381439447402954,0.0009199706837534904
1761139740015984400,11.676984375,-1.756263256072998,-0.38231194019317627,-0.022358719259500504
1761139740026043100,11.687043212890625,-1.9945077896118164,-0.39570027589797974,-0.07427474111318588
1761139740036102400,11.697102294921875,-2.2240586280822754,-0.40442827343940735,-0.11388899385929108
1761139740046161200,11.7071611328125,-2.3768110275268555,-0.4461100399494171,-0.16125287115573883
1761139740056220400,11.717220458984375,-2.598870277404785,-0.5732373595237732,-0.21431049704551697
1761139740066279200,11.727279052734374,-2.891465425491333,-0.6034665703773499,-0.15303510427474976
1761139740076338200,11.737338134765626,-3.1019420623779297,-0.4914676249027252,0.11716841161251068
1761139740086397200,11.747397216796875,-3.0742831230163574,-0.3709963858127594,0.40894585847854614
1761139740096456200,11.757456298828124,-2.823500871658325,-0.38597533106803894,0.649918794631958
1761139740106515200,11.76751513671875,-2.3982090950012207,-0.5006566643714905,0.7699522376060486
1761139740116574200,11.77757421875,-1.8993231058120728,-0.6216837167739868,0.7831881642341614
1761139740126633200,11.78763330078125,-1.3991966247558594,-0.6786007881164551,0.718816339969635
1761139740136692200,11.797692138671875,-0.9394071698188782,-0.677640974521637,0.6239689588546753
1761139740146751200,11.807751220703125,-0.5252400636672974,-0.6249520778656006,0.5040202736854553
1761139740156810200,11.817810302734374,-0.15048828721046448,-0.5671244859695435,0.3920825719833374
1761139740166870300,11.827870361328126,0.15946145355701447,-0.5657203793525696,0.2720060646533966
1761139740176929300,11.83792919921875,0.3860732913017273,-0.6069014072418213,0.15405119955539703
1761139740186988300,11.84798828125,0.52720707654953,-0.7095663547515869,0.04242545738816261
1761139740197047300,11.85804736328125,0.5713945031166077,-0.8025338649749756,-0.03443283960223198
1761139740207106000,11.86810595703125,0.5580874085426331,-0.688309371471405,-0.07332967966794968
1761139740217165300,11.878165283203124,0.5094248056411743,-0.4439776539802551,-0.10097222775220871
1761139740227224000,11.88822412109375,0.4634663164615631,-0.25486892461776733,-0.11990458518266678
1761139740237283300,11.898283447265625,0.49309054017066956,-0.09312769770622253,-0.0909712091088295
1761139740247342000,11.908342041015626,0.6410679221153259,-0.004416787531226873,0.0055933501571416855
1761139740257401300,11.9184013671875,0.9203416109085083,-0.006054897792637348,0.12956909835338593
1761139740267460000,11.928460205078125,1.293038010597229,-0.07020565122365952,0.2444879412651062
1761139740277519000,11.93851904296875,1.6900253295898438,-0.1229141354560852,0.3161157965660095
1761139740287578000,11.948578125,2.0126729011535645,-0.21226462721824646,0.3610474765300751
1761139740297637000,11.95863720703125,2.2359912395477295,-0.36457985639572144,0.44098225235939026
1761139740307696000,11.968696044921876,2.3666865825653076,-0.56818026304245,0.6176820397377014
1761139740317755100,11.978755126953125,2.369065523147583,-0.8252610564231873,0.8874631524085999
1761139740327814100,11.988814208984374,2.2171449661254883,-1.0959042310714722,1.2140192985534668
1761139740337873200,11.998873046875,1.9164561033248901,-1.335819125175476,1.5631340742111206
1761139740347932200,12.00893212890625,1.4853886365890503,-1.5287212133407593,1.916882038116455
1761139740357991200,12.0189912109375,0.9663850665092468,-1.6888450384140015,2.274890184402466
1761139740368050200,12.02905029296875,0.4134276509284973,-1.8036901950836182,2.621004819869995
1761139740378109200,12.039109130859375,-0.11806177347898483,-1.8736498355865479,2.897212266921997
1761139740388168200,12.049168212890624,-0.5941023230552673,-1.8816776275634766,3.0329155921936035
1761139740398227200,12.059227294921875,-0.978922963142395,-1.8164807558059692,3.0244343280792236
1761139740408286200,12.0692861328125,-1.239798665046692,-1.7562202215194702,2.9007339477539062
1761139740418345200,12.07934521484375,-1.34127676486969,-1.7331665754318237,2.6860175132751465
1761139740428404000,12.089404052734375,-1.3165709972381592,-1.6765103340148926,2.4366066455841064
1761139740438463200,12.099463134765625,-1.2406717538833618,-1.5257258415222168,2.155376672744751
1761139740448522000,12.10952197265625,-1.133272409439087,-1.2932559251785278,1.8754267692565918
1761139740458581200,12.119581298828125,-0.9971656203269958,-1.0471715927124023,1.6397072076797485
1761139740468640000,12.129639892578124,-0.8303305506706238,-0.8198230862617493,1.4622427225112915
1761139740478699300,12.13969921875,-0.6389036178588867,-0.6200545430183411,1.3480339050292969
1761139740488758000,12.149758056640625,-0.4229007065296173,-0.442026823759079,1.2784979343414307
1761139740498817300,12.1598173828125,-0.19227787852287292,-0.3183203339576721,1.21781587600708
1761139740508876000,12.1698759765625,0.037610385566949844,-0.2662489712238312,1.1700811386108398
1761139740518935300,12.179935302734375,0.22068433463573456,-0.24046719074249268,1.1266117095947266
1761139740528994000,12.189994140625,0.2758958339691162,-0.1774306446313858,1.0916067361831665
1761139740539053300,12.20005322265625,0.18330785632133484,-0.11618805676698685,1.1092816591262817
1761139740549112000,12.210112060546875,0.06438980251550674,0.041288599371910095,1.3527953624725342
1761139740559171000,12.220171142578126,-0.11250081658363342,0.15528440475463867,1.6729449033737183
1761139740569230000,12.23022998046875,-0.29824912548065186,0.14705495536327362,1.8416085243225098
1761139740579289000,12.2402890625,-0.4834293723106384,0.002664500381797552,1.8226397037506104
1761139740589348000,12.25034814453125,-0.7143216133117676,-0.3211711049079895,1.6693954467773438
1761139740599407000,12.260406982421875,-0.9727941751480103,-0.6904828548431396,1.420415997505188
1761139740609466000,12.270466064453124,-1.1826906204223633,-0.9839328527450562,1.0995324850082397
1761139740619525000,12.280525146484376,-1.327750325202942,-1.1562191247940063,0.7437357306480408
1761139740629584100,12.290584228515625,-1.3840818405151367,-1.2040114402770996,0.39199820160865784
1761139740639643100,12.30064306640625,-1.270242691040039,-1.1322613954544067,0.14967158436775208
1761139740649702100,12.3107021484375,-0.9973297715187073,-0.911225438117981,0.010966929607093334
1761139740659761200,12.32076123046875,-0.6390795111656189,-0.6766288876533508,-0.06444074213504791
1761139740669821200,12.3308212890625,-0.2356315404176712,-0.4862806499004364,-0.06777485460042953
1761139740679880200,12.340880126953126,0.19937929511070251,-0.39164069294929504,-0.006696320604532957
1761139740689939200,12.350939208984375,0.6771078109741211,-0.394924134016037,0.08831027150154114
1761139740699998200,12.360998291015624,1.1320436000823975,-0.33486878871917725,0.16574327647686005
1761139740710057200,12.37105712890625,1.5395095348358154,-0.16132938861846924,0.19370897114276886
1761139740720116200,12.3811162109375,1.8865710496902466,0.04902838170528412,0.11704881489276886
1761139740730175200,12.39117529296875,2.156606912612915,0.2357122302055359,-0.06190894544124603
1761139740740234200,12.401234130859375,2.3424437046051025,0.4445919394493103,-0.3097248673439026
1761139740750293200,12.411293212890625,2.4625048637390137,0.6532735228538513,-0.5576178431510925
1761139740760352300,12.421352294921874,2.5510051250457764,0.8258569836616516,-0.7699135541915894
1761139740770411300,12.431411376953125,2.631025552749634,0.9623318314552307,-0.913733959197998
1761139740780470000,12.441469970703125,2.7260372638702393,1.0560444593429565,-1.0063273906707764
1761139740790529300,12.451529296875,2.8306546211242676,1.1628698110580444,-1.0651366710662842
1761139740800588000,12.461588134765625,2.923893690109253,1.258303165435791,-1.0918940305709839
1761139740810647300,12.471647216796875,2.9992876052856445,1.339362382888794,-1.0768300294876099
1761139740820706000,12.4817060546875,3.048138380050659,1.3778351545333862,-1.0382840633392334
1761139740830765300,12.491765380859375,3.056226968765259,1.3676172494888306,-1.0181375741958618
1761139740840824000,12.501823974609374,3.006558656692505,1.3192678689956665,-0.9993671178817749
1761139740850883300,12.51188330078125,2.8706655502319336,1.2504900693893433,-0.9530768394470215
1761139740860942000,12.521942138671875,2.6608633995056152,1.1373169422149658,-0.8899942636489868
1761139740871001300,12.53200146484375,2.392015218734741,0.9696515202522278,-0.8055716156959534
1761139740881060000,12.54206005859375,2.0788662433624268,0.7822336554527283,-0.7026807069778442
1761139740891119400,12.552119384765625,1.7299655675888062,0.6130779981613159,-0.5623668432235718
1761139740901178000,12.56217822265625,1.3506128787994385,0.4506790041923523,-0.40294763445854187
1761139740911237000,12.572237060546875,0.9660968780517578,0.2610158622264862,-0.22010405361652374
1761139740921296100,12.582296142578125,0.604683518409729,0.038610201328992844,-0.01742124743759632
