time,seconds_elapsed,z,y,x
1761140479361921800,0.093921875,0.04629939436018467,0.006540032760612666,0.009459756132215261
1761140479371980800,0.103980712890625,0.053929158586263654,0.0037583844191394745,0.0035712917486671355
1761140479382039800,0.114039794921875,0.04839198272526264,-0.006899312793370336,-0.003717486153170466
1761140479392098800,0.124098876953125,0.055874447435140605,0.011970697773527354,0.0006221870189532637
1761140479402158800,0.134158935546875,0.045101124486327165,0.006509820285439491,-0.009047321140114218
1761140479412217900,0.1442177734375,0.03642681964337825,-0.009052508771885187,0.00035285029197111724
1761140479422276900,0.15427685546875,0.04046645042300224,0.0034941257260739803,-0.00971223305594176
1761140479432336000,0.1643359375,0.04989478850364685,-0.002557593794632703,-0.0016319851160049438
1761140479442395000,0.174394775390625,0.057229953697323796,-0.006467990437708794,-0.010113078074948862
1761140479452455000,0.184454833984375,0.048400166031718254,-0.011453816026262938,-0.014251730515947565
1761140479462514000,0.194513916015625,0.04630757766664028,-0.006079100717976689,-0.005564502259343862
1761140479472573000,0.204572998046875,0.0531909074395895,-0.005315057542920112,0.0016697141773533075
1761140479482632000,0.2146318359375,0.041220483660697936,0.015042360303830354,-0.015584093364560975
1761140479492690700,0.224690673828125,0.040026305440068244,-0.002151826005335897,-0.0031972708045039325
1761140479502751000,0.2347509765625,0.04406944335103035,-0.003604947423096746,-0.00829522413117811
1761140479512809700,0.244809814453125,0.04422024999856949,-0.0009740691965445875,-0.010928193850116804
1761140479522869000,0.254868896484375,0.04572013316750526,0.0021835911167785525,-0.002106087167467922
1761140479532927700,0.264927734375,0.04731120175123214,0.016582429352682084,0.008962903392827138
1761140479542987800,0.27498779296875,0.052395957669615745,0.01845525575354695,-0.0016174907997716218
1761140479553047000,0.285047119140625,0.050126843693852424,0.023823924913536756,-0.015278927272371947
1761140479563105800,0.295105712890625,0.0436661232471466,0.0011843326800502836,-0.004909024892142042
1761140479573165000,0.3051650390625,0.048441667085886,0.012448654016200452,-0.005023746446147561
1761140479583223800,0.315223876953125,0.04709259056448936,0.002987856704369187,-0.002662058816105127
1761140479593283800,0.325283935546875,0.04260989219248294,-0.00432988243047148,0.006549997032200917
1761140479603342800,0.3353427734375,0.047699908807873725,0.0033650925189256664,0.0019713366055861114
1761140479613401900,0.34540185546875,0.046210547032952305,-0.0027294614965096115,-0.010372185668861493
1761140479623460900,0.3554609375,0.046231005299091334,0.0007217201369814574,0.0008556761144194752
1761140479633521000,0.36552099609375,0.06018471184968948,-0.006660973992850631,-0.017075921091204507
1761140479643580000,0.375579833984375,0.045372342643141744,-0.011042184751760213,-0.008837349917553364
1761140479653639000,0.385638916015625,0.03880173208117485,0.003695329120289534,-0.00890988543080166
1761140479663698000,0.395697998046875,0.05166939696073532,-0.0029119784565642473,0.01433936313362792
1761140479673757000,0.4057568359375,0.057039984083175656,-0.0032229441018775105,-0.00629844255708158
1761140479683817000,0.41581689453125,0.0538923337072134,0.0010916676942259072,0.020172206606110556
1761140479693875700,0.425875732421875,0.04042553389072418,0.013610153809934853,0.007301957043819129
1761140479703935000,0.43593505859375,0.043566754525899885,0.007619096701592207,0.011410926732607185
1761140479713993700,0.44599365234375,0.034741643035411836,0.00516909146727994,0.008982877601776271
1761140479724053000,0.456052978515625,0.04955225867629051,0.013083883179817348,-0.0004263721859082579
1761140479734113000,0.466113037109375,0.03998305082023144,0.005330236845742911,0.009718982457136734
1761140479744171800,0.476171875,0.04640636186599731,-0.00924527313131839,-0.00021681195530109108
1761140479754231000,0.48623095703125,0.04236614656448364,0.0036074681737460193,0.015538144464138894
1761140479764289800,0.496289794921875,0.033228315863013266,0.0003926891120150685,0.00484457222064957
1761140479774349800,0.506349853515625,0.03966740899980068,0.014235482634045183,-0.01403384998156689
1761140479784408800,0.516408935546875,0.04355564860999584,0.009710771751217543,-0.012232974572060629
1761140479794467800,0.5264677734375,0.03502396710813045,0.01787526390850544,0.0052756479811389
1761140479804526800,0.53652685546875,0.045803719797730444,-0.005038268161844462,0.010132860487652941
1761140479814585900,0.5465859375,0.03443184643387794,-0.004712926931306719,-0.017082387364609167
1761140479824645600,0.556645751953125,0.04116320051550865,0.0025483145096339282,-0.016674089691508562
1761140479834705000,0.566704833984375,0.03532382683753967,0.0031717253712937234,-0.013846656846394762
1761140479844763600,0.576763671875,0.04220306495726108,0.011748944781627505,-0.0044930553692393
1761140479854823200,0.5868232421875,0.04536006768345833,0.000704677670635283,0.00769068236676976
1761140479864883000,0.596883056640625,0.03474281207919121,0.00951071913447231,0.000727711486350745
1761140479874942000,0.60694189453125,0.04133212734162807,0.0057678428117185826,0.00683777359817177
1761140479885001000,0.6170009765625,0.0583843844294548,0.004173066167254001,0.002517280050553381
1761140479895060000,0.62706005859375,0.04282207363843918,0.007143040155060589,-0.008327272370411082
1761140479905119000,0.637118896484375,0.0392395389765501,0.008037504776753485,-0.011386879136739298
1761140479915179000,0.647178955078125,0.039244799673557276,0.006228866185899824,0.0010380926097743213
1761140479925238000,0.657238037109375,0.0376058002948761,0.004908778296969831,-0.002688216170668602
1761140479935297000,0.667297119140625,0.050769817772507664,-0.00400989322848618,0.0010990290167741477
1761140479945356000,0.67735595703125,0.04134323325753212,-0.0017672836671583354,0.006557349221594631
1761140479955416000,0.687416015625,0.039099838244915,0.009429653254896402,-0.002600583552988246
1761140479965475000,0.69747509765625,0.043887657043337816,0.005271309732738882,0.006645648559555411
1761140479975534000,0.7075341796875,0.03161971162259578,0.011923954288661479,-0.00915311960214749
1761140479985593000,0.717593017578125,0.046887423381209374,-0.008066749137546866,0.0007287617991212755
1761140479995651800,0.72765185546875,0.047485973796248436,-0.0009064838530495762,0.008921995993703604
1761140480005712100,0.737712158203125,0.030728315740823745,-0.006991301925759762,-0.0023058840558864177
1761140480015771000,0.74777099609375,0.05452186378240585,-0.002084496390167624,0.004625312579935416
1761140480025830100,0.757830078125,0.04614040440618992,-0.008686214476451277,-0.01078150625526905
1761140480035889000,0.767888916015625,0.03955810340642929,-0.0038964594492688774,0.0018872567850165068
1761140480045948000,0.777947998046875,0.05302431870102882,0.0057693954479880625,-0.011641913343733176
1761140480056008200,0.78800830078125,0.05198094712793827,0.008219802541099488,-0.0017247962323017417
1761140480066067000,0.79806689453125,0.0458405446767807,-0.014287925207335501,0.008478252547886223
1761140480076126200,0.808126220703125,0.03267009745836258,-0.01076740466468036,-0.0010785159517079591
1761140480086185000,0.81818505859375,0.041647769162058826,-0.0006186433549970388,0.007729288210952654
1761140480096245000,0.828244873046875,0.05915303071439266,0.0003096139384433627,0.01821295316396281
1761140480106304000,0.838303955078125,0.03491232342720031,0.005329871519561857,0.0004250844111200422
1761140480116363000,0.848363037109375,0.0392483068048954,-0.002534925305098295,0.005289694772800431
1761140480126422000,0.858422119140625,0.044341830551624294,0.00954758054614067,0.013615715901041403
1761140480136481000,0.86848095703125,0.039406127715110775,0.0015658793435432015,0.0031268998488783836
1761140480146541000,0.878541015625,0.04463642958402633,0.001721234302036464,-0.00845649737380445
1761140480156600000,0.88860009765625,0.046128129446506495,0.01164743890222162,0.004303615478053689
1761140480166659000,0.8986591796875,0.03490355559885502,-0.012805614227708428,0.014723987670196219
1761140480176718000,0.908718017578125,0.0331049817442894,-0.0004151018732227385,-0.0039810233270283785
1761140480186778000,0.918778076171875,0.04148468755483627,0.013523187912534922,0.007972321452898903
1761140480196836900,0.9288369140625,0.03475099538564682,0.007849580989219248,0.014422009048936887
1761140480206896000,0.938896240234375,0.034900632989406585,-0.000663085284922272,0.0006298314692918211
1761140480216955000,0.948954833984375,0.05135960035920143,0.005792027404904365,0.009547096488950774
1761140480227014100,0.95901416015625,0.045371758121252055,-0.009814359989855437,0.004871898618992418
1761140480237074200,0.96907421875,0.048964814177155494,0.006620075726881623,0.024364662460424003
1761140480247133000,0.9791328125,0.053446343505382535,0.0031255116093903777,0.005047931039333343
1761140480257192200,0.989192138671875,0.03429214570224285,-0.0016290807728655636,-0.005562018041312694
1761140480267251000,0.9992509765625,0.05120177944898605,-0.00011127835474908352,-0.0018184293325059116
1761140480277310200,1.009310302734375,0.05135141705274582,-0.007886917324922978,-0.011288222801545634
1761140480287370000,1.019369873046875,0.04880816231071949,0.004995689395442605,0.00986679342999123
1761140480297429000,1.029428955078125,0.050153731700778005,0.009601612288318575,0.0004309204968623817
1761140480307488000,1.039488037109375,0.04042261128127575,0.008495039285905658,-0.012041790248360483
1761140480317547000,1.049547119140625,0.04430909732580185,0.00011699570948258042,-0.0017500859371852129
1761140480327607000,1.05960693359375,0.06824936036169528,-0.005126366570405661,0.020377803047653287
1761140480337666000,1.069666015625,0.029943887364864346,0.006768854814115911,0.007860449443105608
1761140480347724800,1.079724853515625,0.02455459554195404,0.007467376738600432,0.008557181269302964
1761140480357784000,1.0897841796875,0.032035891208052635,-0.006566281446721404,0.003922845132695511
1761140480367842800,1.0998427734375,0.04340834909379482,0.011866598078235983,0.006610211919993162
1761140480377903000,1.109903076171875,0.05807400330603122,-0.012796736801508814,-0.004670750023704022
1761140480387962000,1.119962158203125,0.03428454691767693,-0.002722355902288109,-0.00034813758423551917
1761140480398020900,1.130020751953125,0.03458382212519646,0.009743578042276203,0.0016567542310804127
1761140480408080100,1.140080078125,0.03787234227657318,0.0006961290379986167,0.0029429398504085837
1761140480418140000,1.150139892578125,0.0525374119669199,-0.0002905256454832852,0.008122589244320988
1761140480428199200,1.16019921875,0.043857846426963804,-0.00017084478856995702,-0.0075193443878553805
1761140480438258000,1.1702578125,0.03517711184322834,-0.0018495368568226694,-0.008741132134618237
1761140480448317000,1.18031689453125,0.03697334761023521,-0.000878938258998096,-0.018078019938990473
1761140480458376000,1.1903759765625,0.03666998074948787,-0.0032543438871391116,0.005472905852599069
1761140480468436000,1.20043603515625,0.03786532801389694,0.016454619988240302,0.0001985273799393326
1761140480478495200,1.2104951171875,0.04250584729611873,0.00044978959411382674,0.008721230990905314
1761140480488554000,1.220553955078125,0.05297931051552295,0.014139913305081426,-0.0050715585100930185
1761140480498613000,1.230613037109375,0.04654313998818397,0.000053502019215375185,0.0022472857364453373
1761140480508672000,1.240672119140625,0.03995791637897491,0.003060995005816221,-0.006952202891232446
1761140480518732000,1.25073193359375,0.045644145321846005,-0.004509951705113053,-0.018711075411830095
1761140480528791000,1.260791015625,0.05342705428302288,0.0008528905022889375,0.010004959791665897
1761140480538850000,1.27085009765625,0.034869653329253195,-0.0045843321155756706,-0.003702653910219669
1761140480548909000,1.280908935546875,0.040406244668364524,0.0052284204390831285,-0.01333820500075817
1761140480558969000,1.290968994140625,0.055666357642412186,0.005041757026873529,0.010048387941438704
1761140480569028000,1.301028076171875,0.03786182088255882,0.0005754983330145478,-0.005614999470720067
1761140480579087000,1.311087158203125,0.03262508927285671,0.0029907610475085676,-0.0033222854236606507
1761140480589146000,1.32114599609375,0.04579612101316452,0.003378609587624669,0.005841684366064146
1761140480599205000,1.331205078125,0.03711889356076717,0.007698701276443899,-0.009688432055246084
1761140480609265200,1.34126513671875,0.0357715706050396,0.017614019156433642,-0.0007391370626632124
1761140480619324000,1.351323974609375,0.03831716343462467,0.008452223057486117,0.00523723393320106
1761140480629383200,1.361383056640625,0.03053600803911686,0.003580050443857908,-0.008773253439087421
1761140480639442000,1.37144189453125,0.04250643181800842,0.005497428372502326,-0.01570691602663137
1761140480649502000,1.381501953125,0.05567629451453685,-0.0042830841466784475,0.002906553362775594
1761140480659561000,1.39156103515625,0.04101473195552826,0.004464797389134765,-0.011969811857538298
1761140480669620000,1.401619873046875,0.03907295023798942,0.004981222478672862,0.012404531746683642
1761140480679679000,1.411678955078125,0.047454994136095045,0.015124102036841213,0.01745335783516057
1761140480689738000,1.421738037109375,0.05030161573886871,-0.010476495426706969,0.010333799020387231
1761140480699798000,1.431798095703125,0.045212768167257306,0.003038582244608551,0.010426281343121081
1761140480709857000,1.44185693359375,0.045514381462335586,-0.0025528628205880523,-0.0029339345600455998
1761140480719916000,1.451916015625,0.04806289690136909,0.018315829016547647,0.0014853523200843482
1761140480729975000,1.46197509765625,0.044621232014894485,0.0016110884584486483,-0.014962025076616555
1761140480740034000,1.472033935546875,0.0354968453168869,0.01226717823576182,0.0049008781183045354
1761140480750093800,1.48209375,0.04836275663077831,0.0018905081880278883,0.00363103171242401
1761140480760153000,1.492153076171875,0.03803659292757511,-0.005850881452672183,0.002236408149404451
1761140480770211800,1.5022119140625,0.03923135567009449,0.0003727605688385665,0.005480038846284151
1761140480780271000,1.51227099609375,0.04177694849967956,-0.0093877868745476,0.0090534494868014
1761140480790329900,1.522329833984375,0.048509471625089645,0.0028582207090221343,0.0020684494376648215
1761140480800390000,1.532389892578125,0.049855625537037845,-0.0009082191524095833,-0.015241499605122952
1761140480810449200,1.54244921875,0.03055237465202808,-0.018232023190613834,-0.0071235317369922994
1761140480820508000,1.5525078125,0.04177694849967956,0.007066376455966383,0.007820464492589234
1761140480830567200,1.562567138671875,0.03728782038688659,-0.0015992884228006004,-0.005910475285956636
1761140480840627000,1.572626953125,0.04028349507153034,0.0037719014878384765,-0.009584825550299138
1761140480850686000,1.58268603515625,0.046419221347570414,-0.0005501264297403395,-0.007139834417821839
1761140480860744400,1.592744384765625,0.03923486280143261,-0.00783197226729244,0.015235042464872822
1761140480870803700,1.6028037109375,0.049857963624596595,0.004722352346777915,0.005422865298949182
1761140480880862500,1.612862548828125,0.04746668457388878,0.002025916337035596,-0.005641978809190914
1761140480890922500,1.622922607421875,0.045668110719323154,0.010149674625135958,-0.007106178743392228
1761140480900981500,1.6329814453125,0.041624388286471366,0.007802782705426216,-0.009968235377315431
1761140480911040500,1.64304052734375,0.05165127678215503,-0.0021274039501324293,0.00746891110856086
1761140480921099500,1.653099609375,0.04731353983879089,-0.00009061915921047329,-0.006840285215666517
1761140480931158500,1.663158447265625,0.04731529340445995,0.005606277308147401,-0.0014432210782542824
1761140480941218300,1.67321826171875,0.04057867862582207,-0.0013189371114596723,-0.003482270891498774
1761140480951277600,1.683277587890625,0.04895955348014831,0.0027146475198678672,-0.0059769281182903795
1761140480961336300,1.69333642578125,0.03803893101513386,0.0006551577067933976,0.011591206069802865
1761140480971395600,1.7033955078125,0.0422328755736351,0.006202599233482033,0.005915105795301497
1761140480981455600,1.71345556640625,0.026671733826398848,0.004309533762186765,0.005631274752086028
1761140480991514400,1.723514404296875,0.045075990045070645,0.004689966180827469,0.01178023496903479
1761140481001573600,1.73357373046875,0.03834171335399151,-0.0018893208779394626,-0.001282641955371946
1761140481011632400,1.74363232421875,0.05719663594961166,-0.0026508433023467656,-0.001809698036778718
1761140481021691600,1.753691650390625,0.04387947373688221,0.00010353343971073627,-0.007702381937718018
1761140481031751400,1.76375146484375,0.04956745624542236,-0.0063993821809068315,0.011654553629597648
1761140481041810400,1.773810546875,0.05151449865996837,-0.012396741165872662,-0.015011490241531282
1761140481051869400,1.783869384765625,0.029369886869192122,-0.0075766092667356125,-0.0006557696281466633
1761140481061928400,1.793928466796875,0.03445756539702415,-0.006641776102036237,0.0038594062413554635
1761140481071987500,1.803987548828125,0.04956862528920173,-0.003930124256853014,-0.001678555070934817
1761140481082047500,1.814047607421875,0.04433364724516868,-0.0038580819339491426,-0.007758788300072774
1761140481092106500,1.8241064453125,0.04897065939605236,-0.008482234603259711,-0.0007951689656823873
1761140481102165500,1.83416552734375,0.04432897107005119,-0.002144391617551446,0.0011223094276618213
1761140481112224500,1.844224609375,0.042678281253576276,0.00022898645028471946,-0.01601552531807683
1761140481122284300,1.8542841796875,0.04551905763745308,-0.004512691651470959,0.006628304699109867
1761140481132343600,1.864343505859375,0.04222644583284855,0.011064086056314409,-0.010187221023393794
1761140481142402300,1.87440234375,0.04581599475741386,0.008243128617759794,-0.002094488061219454
1761140481152461600,1.884461669921875,0.05942892504632473,-0.0009644428516738116,-0.005743046297179534
1761140481162520300,1.894520263671875,0.03233984259068966,0.003139923727232963,0.002619215188222006
1761140481172580600,1.90458056640625,0.03877075242102146,-0.01045179937686771,0.004149758356902748
1761140481182639600,1.9146396484375,0.04296002080440521,0.010526563379820436,0.0030066801358480007
1761140481192698400,1.924698486328125,0.038466801038384436,0.010002868299279362,0.015218365324707701
1761140481202757600,1.934757568359375,0.05192834015786647,-0.0014971797551959752,-0.00930316819786094
1761140481212816400,1.94481640625,0.02948328411579132,-0.007081062568444758,-0.010983833027491346
1761140481222876700,1.954876708984375,0.034573885253071784,-0.006599142536707222,0.0015257299962453544
1761140481232935400,1.964935302734375,0.044748657786846155,-0.001838138679973781,0.007729434341425076
1761140481242994400,1.974994384765625,0.045346623679995535,-0.008274455337785184,0.017696427609724924
1761140481253053400,1.985053466796875,0.031279519882798194,-0.004940799136739224,0.0007568736487533897
1761140481263113500,1.995113525390625,0.04400280785560608,0.00800236039813608,0.01830553595139645
1761140481273172500,2.00517236328125,0.041159108862280844,0.0018370427014306186,0.0024908395681995897
1761140481283231500,2.0152314453125,0.029935119536519048,-0.0025859796389006077,-0.004374159963615239
1761140481293290500,2.02529052734375,0.046695115679502484,0.003887289762124419,0.0004856280924752354
1761140481303349500,2.035349609375,0.03457271620929241,0.005926997162494808,-0.003997563469875604
1761140481313409500,2.045409423828125,0.037564883762598034,0.0016309256700798868,-0.01266980421990156
1761140481323468500,2.055468505859375,0.028438158977031707,-0.00011460282299667596,-0.010626790617592632
1761140481333527600,2.065527587890625,0.038766660767793656,0.004286098087672144,0.007827405690029264
1761140481343586600,2.075586669921875,0.056575873702764505,-0.00380014120163396,0.003625241292454302
1761140481353645600,2.0856455078125,0.05164367799758911,0.012020455199386923,-0.007526349517377093
1761140481363705300,2.095705322265625,0.04596270975172519,0.004504015154670924,-0.004556731722597032
1761140481373764600,2.1057646484375,0.037438042512536046,-0.0038951442750170826,-0.0024286701853387057
1761140481383823400,2.1158232421875,0.04402852681875229,-0.001366319917142391,-0.003978109850734472
1761140481393882600,2.125882568359375,0.036848259925842286,0.01205201938143,0.001843445042753592
1761140481403941400,2.13594140625,0.037000235617160794,0.004353701697476208,-0.005806083329720422
1761140481414001400,2.14600146484375,0.044184009641408915,0.012933880249876527,-0.015727100298134608
1761140481424060700,2.156060791015625,0.04358429018259048,-0.00019888357296586034,-0.00455408310778439
1761140481434119400,2.166119384765625,0.04463292245268821,-0.003016279081255197,0.000132385074859485
1761140481444178700,2.1761787109375,0.04523205738961696,0.00484389636721462,-0.011698255774006247
1761140481454238500,2.186238525390625,0.0435877973139286,-0.012588701807707547,-0.018987389868870375
1761140481464297500,2.19629736328125,0.039698973181843754,0.0007082761335186659,0.0032939635114744305
1761140481474356500,2.2063564453125,0.03940145153999328,-0.005333780509699136,-0.008615560393035411
1761140481484415500,2.21641552734375,0.04119534921944141,0.010475600377563387,-0.005329624924389645
1761140481494474500,2.226474609375,0.04793137947618961,-0.008951824876386672,0.008808918407512828
1761140481504534500,2.236534423828125,0.054368719047307966,-0.0026479572255164383,-0.004158224791148677
1761140481514593500,2.246593505859375,0.03177285635769367,0.0010706066398881375,0.0028190577424131334
1761140481524652500,2.256652587890625,0.04958090024888515,-0.0014165157344192265,-0.00031158669982105493
1761140481534711600,2.266711669921875,0.04389525582790375,0.0033724173088558016,-0.005487217505741864
1761140481544770600,2.2767705078125,0.050181204229593275,-0.010590294532105325,-0.012810454799607395
1761140481554830600,2.28683056640625,0.047184360501170156,0.0019184191082604227,-0.015955794487474487
1761140481564889300,2.296889404296875,0.03626023090481758,-0.011777440223749725,0.00455438450188376
1761140481574948600,2.306948486328125,0.046135728231072426,0.0006543357228860259,0.010506753567652776
1761140481585007400,2.31700732421875,0.03237082225084305,0.0013609678885899484,0.006079237715294584
1761140481595067400,2.3270673828125,0.04643792604804039,-0.012589487258996813,0.006880105769401416
1761140481605126400,2.33712646484375,0.042397710746526714,-0.005188198026549071,0.006934831631323322
1761140481615185400,2.347185302734375,0.03641279111802578,0.019057240234687925,-0.0020126732629723847
1761140481625244400,2.357244384765625,0.055419104883074756,0.0001257452715188265,-0.005489811321627349
1761140481635303400,2.367303466796875,0.0344686713129282,0.0014440978610888123,-0.005715884295618161
1761140481645363500,2.377363525390625,0.04554068494737148,-0.011869118828885257,-0.009176299548335373
1761140481655422500,2.38742236328125,0.05272328992784023,0.003714125152304768,0.004722763338731601
1761140481665481500,2.3974814453125,0.03132569711208343,0.0038442908706143495,0.0053795010812580585
1761140481675540500,2.40754052734375,0.0435965651422739,-0.007073628180660307,0.005140404228912666
1761140481685599500,2.417599609375,0.03432078727483749,-0.004695592204015702,-0.004535825931886211
1761140481695659500,2.427659423828125,0.05961421848535537,-0.0014347820434719323,0.012384813266061246
1761140481705718500,2.437718505859375,0.05572422530949116,0.00607984963664785,0.00617696246872656
1761140481715777300,2.44777734375,0.03701952483952045,-0.0012071290337480605,0.01075301081314683
1761140481725836500,2.45783642578125,0.04944061499536037,-0.009382781905867159,0.008092349369684233
1761140481735895300,2.467895263671875,0.040614334461092944,0.003102149000111967,0.010554099840717389
1761140481745955600,2.47795556640625,0.0413613534361124,0.007639280973095446,0.005311294683255255
1761140481756014600,2.4880146484375,0.04959142164289951,-0.006379070045240223,0.00777024127584882
1761140481766073300,2.4980732421875,0.03866904561221599,-0.002921623067744076,0.006525867237942293
1761140481776132600,2.508132568359375,0.03313479236066341,-0.008638247148878873,0.0013947696934919803
1761140481786192400,2.5181923828125,0.022362053933739662,0.00802917533982545,-0.00985269183940254
1761140481796251600,2.528251708984375,0.035379356417059894,-0.0077182644934393465,-0.0010052041203249245
1761140481806310400,2.538310302734375,0.042560207831859584,0.000825545837637037,0.0014263156092260032
1761140481816369400,2.548369384765625,0.04585048154890537,-0.002779712112713605,0.0012722118929028511
1761140481826428400,2.558428466796875,0.049592590686678886,0.003952993675787002,-0.0022678353341296312
1761140481836488400,2.568488525390625,0.043755555096268654,-0.004729786734562367,0.01604768315516412
1761140481846547700,2.578547607421875,0.0465986695677042,0.0005586202634498477,-0.0003454250373411923
1761140481856606700,2.588606689453125,0.03283434810936451,-0.021658289578557012,0.01469118137913756
1761140481866665700,2.598665771484375,0.05094400529563427,0.01026533689405769,0.01127020308766514
1761140481876724700,2.608724853515625,0.048699441239237785,0.006420388436317443,0.001448152981698513
1761140481886784800,2.61878466796875,0.03553133210837841,-0.005048826088476926,0.000339799014152959
1761140481896843800,2.62884375,0.04316401894390583,-0.013697083174716681,0.005257801797194406
1761140481906902800,2.63890283203125,0.03822597801983356,0.0004968070736154913,0.015997715666750446
1761140481916961800,2.6489619140625,0.05109364289939403,-0.0015275200945325195,0.00031330373287200925
1761140481927020800,2.659020751953125,0.05214227516949176,-0.011747026819176972,0.010196527707856147
1761140481937080800,2.669080810546875,0.04765197801291942,-0.005954889816418289,0.006183574872603639
1761140481947139800,2.679139892578125,0.037031215277314185,0.0022597433592192826,0.018670186279015615
1761140481957198800,2.68919873046875,0.05364215833842754,0.007361888803821057,0.019521697674971073
1761140481967257900,2.6992578125,0.03792962542176247,-0.011928082474507391,-0.0076927281933836635
1761140481977318000,2.70931787109375,0.028950200152397153,0.007108133238460868,0.011876580616133286
1761140481987376600,2.719376708984375,0.04825286651551723,-0.004748728897050023,0.011038695886731146
1761140481997436000,2.729435791015625,0.0485503881573677,-0.001189081920403987,-0.007590290732216089
1761140482007494700,2.73949462890625,0.02550269004702568,-0.007590875254105776,-0.00094421291439794
1761140482017554000,2.749553955078125,0.03852116157412529,0.001383764242287725,0.012784735836461185
1761140482027614000,2.759614013671875,0.04435352098941803,0.002344407701678574,0.015860161226429043
1761140482037672700,2.769672607421875,0.03717266957461834,-0.02135729733798653,0.009024853579979389
1761140482047732000,2.77973193359375,0.03732289170026779,0.00030150369722396135,-0.0017665438816417008
1761140482057790700,2.789790771484375,0.03702244744896888,-0.0033728009013459085,0.007924016198609024
1761140482067850000,2.79985009765625,0.04405190769433975,-0.00736015350446105,0.014257858862634747
1761140482077909800,2.80990966796875,0.030133856979012486,-0.008284574873000383,0.006778590756841003
1761140482087968800,2.81996875,0.04943710786402225,0.003140763977449387,-0.007651857326878234
1761140482098027800,2.83002783203125,0.03537292667627334,0.01738501443983987,0.0029818836213089525
1761140482108086800,2.840086669921875,0.03821954827904701,-0.011892554503399879,0.005373829392297193
1761140482118145800,2.850145751953125,0.042857729473710054,-0.0014364625439047814,0.006216499894671141
1761140482128205800,2.860205810546875,0.03642097442448139,0.001915606096666306,0.0048875345795415335
1761140482138264800,2.870264892578125,0.046744215518236154,0.014249109300598502,0.01812480908962898
1761140482148323800,2.88032373046875,0.04120703965723514,-0.0019037512620911,-0.0004560366718098521
1761140482158382800,2.8903828125,0.02938566896021366,-0.014119802098814397,-0.006362584701320156
1761140482168442600,2.900442626953125,0.03612053017318249,-0.00822475271085277,-0.006351844111597165
1761140482178502000,2.910501953125,0.04360241036117077,0.003484773375838995,0.0008893135225400328
1761140482188560600,2.920560546875,0.04285480686426162,-0.009973368210159242,-0.004272014763392507
1761140482198620000,2.930619873046875,0.04090893349349498,-0.000451013436820358,0.013000899337790906
1761140482208678700,2.9406787109375,0.047940731826424596,0.005478047818597406,0.010501949528371914
1761140482218738700,2.95073876953125,0.04000935430526733,-0.003371978917438537,0.00009325864086858928
1761140482228797700,2.960797607421875,0.044348260292410846,-0.0017167590563185512,0.011718640974909067
1761140482238856700,2.970856689453125,0.05302548774480819,-0.012501133122108876,0.0063538808050565415
1761140482248915700,2.980915771484375,0.055717211046814916,-0.0018290420580655336,-0.012878341537201776
1761140482258974700,2.990974609375,0.04224982670843601,-0.005643686709087342,0.003177050000382587
1761140482269034800,3.00103466796875,0.053170449173450464,0.0013550861370749772,0.005780903222691268
1761140482279093800,3.01109375,0.052720367318391796,0.007147935525886714,0.014083041151845827
1761140482289152800,3.02115283203125,0.05720891090929508,0.011725673503894357,0.011888380651781334
1761140482299211800,3.031211669921875,0.05556348178982734,-0.013083773581963032,0.012843991743028162
1761140482309270800,3.041270751953125,0.04344458945095539,0.0055517158430069685,-0.0029934005291666834
1761140482319330800,3.051330810546875,0.035814825224876404,-0.016445980024058372,0.00750695069716312
1761140482329389800,3.061389892578125,0.03970715648829937,0.00573008635090664,0.02083371185529977
1761140482339448600,3.071448486328125,0.03506897529363632,-0.009497366462554783,0.0004596534010022878
1761140482349507800,3.0815078125,0.05616846194565296,0.0037315512111410496,0.01359568689316511
1761140482359566600,3.091566650390625,0.03507248242497444,0.005398534575290978,0.010846287720324472
1761140482369627000,3.101626953125,0.044052492216229436,0.0048981473051011555,0.008159386723907664
1761140482379686000,3.111685791015625,0.04854220485091209,0.008934691078495234,-0.004335955978231504
1761140482389744600,3.12174462890625,0.024752163940668103,-0.008618939660210162,0.007109238350158557
1761140482399804000,3.131803955078125,0.05078793795108795,-0.0059169324262067675,0.011981246567005291
1761140482409863700,3.14186376953125,0.04629880983829498,-0.0028423290201462803,0.01671133469566703
1761140482419923000,3.1519228515625,0.025801380732655525,-0.001091996487788856,-0.0031591764169745145
1761140482429981700,3.161981689453125,0.0516875171393156,-0.004616206824872643,-0.014254826655331999
1761140482440040700,3.172040771484375,0.043758477705717086,-0.007795348317641764,0.010382277804613113
1761140482450099700,3.182099609375,0.051692193314433095,0.00210303669385612,0.004793042962811887
1761140482460159700,3.19215966796875,0.041219314616918565,-0.004450074744038283,0.011569642691966146
1761140482470219000,3.202218994140625,0.05229191277325153,0.000892528392933309,-0.0018153423262760042
1761140482480277800,3.21227783203125,0.0479535913079977,0.008466324648074805,0.002100415478507057
1761140482490336800,3.222336669921875,0.04047521825134754,0.0026190051256679,0.012796006149146706
1761140482500395800,3.232395751953125,0.040026889961957926,-0.004315652975719422,0.005061886499449611
1761140482510455800,3.242455810546875,0.04990297181010246,-0.0031466822615824636,-0.010513393370993435
1761140482520514800,3.252514892578125,0.038978257691860196,0.0047941754739731545,0.00971280844467692
1761140482530573800,3.26257373046875,0.03253974907696247,-0.004970244426932185,0.00878384789833799
1761140482540632800,3.2726328125,0.0404682039886713,0.00677188702141866,0.01109360441174358
1761140482550691800,3.28269189453125,0.04331014941632747,-0.00021808146378025412,0.009855778845632449
1761140482560751600,3.292751708984375,0.03822597801983356,0.012314323579426854,0.0017987199850380419
1761140482570811000,3.302810791015625,0.04002104474306106,-0.003042363370582461,-0.001891741163888946
1761140482580869600,3.31286962890625,0.042267946887016294,-0.008110953605454415,0.0023187526706140485
1761140482590929000,3.322928955078125,0.04092354654073715,-0.0014088073519989846,-0.001455349907465279
1761140482600987600,3.332987548828125,0.03613455869853496,0.0013964410607703029,-0.006467405915819108
1761140482611047700,3.343047607421875,0.05319324552714824,-0.0048455951339565215,0.0007627097344957292
1761140482621107000,3.35310693359375,0.03882803556621074,0.005413366818241775,0.012792891743453218
1761140482631165700,3.363165771484375,0.043615854364633555,-0.0058616220423951745,0.0013754896042868494
1761140482641225000,3.373224853515625,0.05424129327535629,0.008650869168434291,-0.012317648047674446
1761140482651284700,3.38328466796875,0.04451251094341278,0.016935352709889412,0.008571949580172076
1761140482661343700,3.39334375,0.05618365951478481,0.013424586376268416,0.010282954749139026
1761140482671402800,3.40340283203125,0.048401335075497626,0.010578421431221067,0.004491822393378243
1761140482681461800,3.413461669921875,0.042566637572646136,-0.0021423640572465954,-0.002590436618309468
1761140482691520800,3.423520751953125,0.049451720911264416,0.006698657388426363,0.005760417557088658
1761140482701580800,3.433580810546875,0.03643266486227512,0.008306567509099841,0.009372233112389222
1761140482711639800,3.443639892578125,0.03224105839133262,0.0006695880909450352,0.0047796537582762534
1761140482721698800,3.45369873046875,0.0440630136102438,-0.006938895885087549,0.009520765604451299
1761140482731757800,3.4637578125,0.03493570430278778,0.0128476084722206,-0.0023409553692676126
1761140482741816800,3.47381689453125,0.03463584457337856,0.0025256094874814153,0.007921367583796381
1761140482751876900,3.483876953125,0.047504678496718404,0.00694342592973262,0.0056089898550417275
1761140482761935600,3.493935546875,0.04047229564189911,-0.0019192593584768474,-0.002321949274698272
1761140482771995000,3.503994873046875,0.026857027265429496,-0.006989840621035546,-0.0002553812668658793
1761140482782053600,3.5140537109375,0.03793020994365215,-0.014468122346140443,0.012008034109231083
1761140482792113000,3.52411279296875,0.04092179297506809,0.006053564417921006,-0.011287948806909844
1761140482802172700,3.534172607421875,0.04481178615093231,-0.010398644417524337,-0.007303116954443976
1761140482812231700,3.544231689453125,0.049450551867485044,0.005747475877124816,-0.0019205471332650631
1761140482822290700,3.554290771484375,0.04346446319520473,0.010029975501913577,0.007456060760142281
1761140482832349700,3.564349609375,0.04346680128276348,0.00024361776383593676,-0.016245753877377138
1761140482842409000,3.574408935546875,0.04242050710022449,0.013511278279032557,-0.0006620349721517413
1761140482852468700,3.58446875,0.038081601113080975,0.01815914061749354,0.008111382863717154
1761140482862527700,3.59452783203125,0.04346680128276348,-0.007178166267368942,0.0030072555245831607
1761140482872587000,3.6045869140625,0.04436579594910144,0.005870828262157738,-0.0018068302262574433
1761140482882645800,3.614645751953125,0.044215573823451995,-0.01689368725894019,-0.0016467534268740564
1761140482892705800,3.624705810546875,0.0362853653460741,0.0044121356201358135,0.006867264554137363
1761140482902764800,3.634764892578125,0.045859833899140355,-0.0025340485222637653,0.008700032939249648
1761140482912823800,3.64482373046875,0.042567222094535825,0.013972959240339696,0.02354872470134869
1761140482922882800,3.6548828125,0.0410737686663866,0.016302753894776104,0.0012684399000834673
1761140482932941800,3.66494189453125,0.03957797715067863,-0.004733202534355223,0.007299527624715119
1761140482943001900,3.675001953125,0.046160862672328946,0.00004013108098879456,-0.011214098119409753
1761140482953060900,3.685060791015625,0.03673018650412559,-0.01058592888424173,-0.010721163503313437
1761140482963119900,3.695119873046875,0.04106733892560005,-0.004786430558934808,0.0019679299389477817
1761140482973179000,3.705178955078125,0.040917116799950595,-0.0032846294275484978,0.00399737167363055
1761140482983237600,3.715237548828125,0.037325229787826535,-0.0019153321020305156,-0.004175130260176956
1761140482993298000,3.7252978515625,0.035081834775209424,0.006891385215241462,-0.0012467851907014846
1761140483003357000,3.73535693359375,0.051992637565732,0.010101268906146287,-0.00706072303331457
1761140483013416000,3.745416015625,0.052291328251361846,0.010434318519104271,0.0007437493056990206
1761140483023475000,3.755474853515625,0.04076923276185989,-0.0017240107810124754,0.009628966086125
1761140483033533700,3.76553369140625,0.044510172855854034,-0.003670742668304592,-0.0045733723301440475
1761140483043594000,3.775593994140625,0.037027123624086375,-0.0033381497130729257,0.01318938024775125
1761140483053652700,3.78565283203125,0.025807810473442078,0.0060781508699059485,-0.005586449229670688
1761140483063712000,3.7957119140625,0.04675941308736801,0.006861318870540708,0.004919984677573666
1761140483073770800,3.805770751953125,0.05483925916850566,-0.0028184001552872357,-0.003473959720879793
1761140483083829800,3.815829833984375,0.026110592812299726,-0.0072702649976126845,0.0038332854194100944
1761140483093890000,3.82589013671875,0.03075111209452152,-0.000554071952495724,-0.003858666455838829
1761140483103948800,3.83594873046875,0.04631283836364746,-0.0026166487718001005,0.0007553118793293833
1761140483114008000,3.846008056640625,0.04047755633890628,0.007498813056480139,0.004464486861880868
1761140483124066800,3.85606689453125,0.04900514618754387,-0.009967303795553743,0.00005615976718254387
1761140483134125800,3.866125732421875,0.05618892021179199,-0.0008694397782906889,0.0077284205612726505
1761140483144185900,3.876185791015625,0.03733282857239246,-0.003990001217927783,0.008036308333510532
1761140483154244900,3.886244873046875,0.04316986416280269,-0.006232190654147416,0.005010448573157191
1761140483164304000,3.896303955078125,0.036734862679243085,-0.0029910715747624634,0.010475052388291805
1761140483174363000,3.90636279296875,0.031195348730683324,-0.0009165120567195117,0.0027625052495859562
1761140483184422000,3.916421875,0.035684476843476295,-0.0020756372302770613,-0.009145082426164299
1761140483194482000,3.92648193359375,0.03882628200054168,-0.0025553835712373257,0.01021871214020066
1761140483204541000,3.936541015625,0.0431651879876852,-0.0024094540282152592,-0.0024202311505563557
1761140483214600000,3.946599853515625,0.03314005305767059,0.0038822299945168197,0.00798099794969894
1761140483224659000,3.956658935546875,0.0440630136102438,-0.005946651711035519,0.0015432747860904782
1761140483234718000,3.966718017578125,0.04376490744650364,-0.003708700058516115,0.012947662180056795
1761140483244778000,3.976778076171875,0.04466331759095192,0.011932064529880881,0.009757222975138573
1761140483254836700,3.986836669921875,0.04271978230774402,-0.00883097497569397,0.013061826611636206
1761140483264896000,3.99689599609375,0.04287117347717285,0.007130545999668538,0.010906036817235872
1761140483274954800,4.006954833984375,0.04376899909973144,0.008315079609118401,0.01569275963711552
1761140483285014000,4.017013916015625,0.04541325917541981,0.0018641681703738867,-0.0030217498408164826
1761140483295073800,4.02707373046875,0.04960369660258293,-0.004556603858433664,0.008142088529234752
1761140483305132800,4.0371328125,0.04316752607524395,0.001811944792792201,0.0022838366208598015
1761140483315191800,4.04719189453125,0.030298107630014417,-0.007171754792891442,-0.0006492211563512683
1761140483325250800,4.057250732421875,0.05543839410543441,-0.020795644867233933,-0.0029848062307573854
1761140483335310800,4.067310791015625,0.061571782293915744,-0.01086279133055359,0.02029931271765381
1761140483345369900,4.077369873046875,0.035385201635956764,-0.0013336049576289952,0.006449450134020298
1761140483355428900,4.087428955078125,0.03493511978089809,0.00043777036275714635,0.00497283824281767
1761140483365487900,4.09748779296875,0.030894319957494733,0.012621635962929575,0.0023242325633298605
1761140483375547000,4.107546875,0.04675415239036083,0.0046400260918773705,0.01005230606473051
1761140483385606700,4.117606689453125,0.03373392729759216,-0.008195672746840865,0.009692879901500417
1761140483395666000,4.127666015625,0.037621582385897634,0.0002959324729628861,0.007495534254005179
1761140483405724700,4.137724609375,0.03372983564436435,0.002925732987280935,0.006761676154658198
1761140483415784000,4.147783935546875,0.050634793215990063,0.01056473996574059,0.005273666086606681
1761140483425842700,4.1578427734375,0.03178103966414928,0.01377579270042479,-0.016508523866254836
1761140483435902700,4.16790283203125,0.060062546774744985,-0.0006617335780523717,0.007050018976209685
1761140483445962000,4.1779619140625,0.04884148005843162,0.007957900201901793,-0.0008401497517246752
1761140483456020700,4.188020751953125,0.04165712151229381,0.009918514484073966,0.01070971052753739
1761140483466080000,4.198080078125,0.045997196543216705,0.011680902780406177,-0.0012375424383208155
1761140483476138800,4.208138671875,0.052879357272386546,0.008685849150270222,-0.0055615248509682715
1761140483486198800,4.21819873046875,0.019960253489017487,0.0015294197906740008,-0.020740297950804232
1761140483496257800,4.2282578125,0.04854512746036052,0.0023423801413737237,0.0016100016130600123
1761140483506316800,4.23831689453125,0.04675590595602989,-0.001388988406676799,0.013731295971572398
1761140483516375800,4.248375732421875,0.029845687687397003,-0.004437014333065599,0.0028152674832846968
1761140483526434800,4.258434814453125,0.042264439755678174,-0.004362359927967191,0.011305292667355388
1761140483536494800,4.268494873046875,0.04390811530947685,0.0003365202116779983,-0.013482243980793281
1761140483546553900,4.278553955078125,0.03942074076235294,-0.0025742709347978234,-0.006390860947733745
1761140483556612900,4.28861279296875,0.04241466188132763,-0.00979439491406083,0.017913257831335065
1761140483566672000,4.298671875,0.030295185020565985,-0.006595872867386787,0.012371615857770666
1761140483576731000,4.30873095703125,0.04541033656597137,-0.017117504343762992,-0.023117722006095572
1761140483586791000,4.318791015625,0.04181844955384731,-0.014291943795327096,-0.009144096045475452
1761140483596850000,4.328849853515625,0.04855214172303676,-0.01284943510312587,-0.0008185955070424824
1761140483606908700,4.33890869140625,0.03688274671733379,0.0019446495280601083,-0.004169020179798827
1761140483616968000,4.348968017578125,0.03763151925802231,0.006040631871111691,0.004366131920786574
1761140483627026700,4.359026611328125,0.0388297891318798,0.010300152479112147,-0.0017445877781603484
1761140483637087000,4.3690869140625,0.03972410762310028,-0.0038861389846540986,-0.003747780826734379
1761140483647145700,4.379145751953125,0.046157355540990826,0.0002348134028725326,0.00016858889940194784
1761140483657205000,4.389205078125,0.03134147920310497,-0.001903385935910046,-0.012422770656272768
1761140483667263700,4.399263671875,0.043756724140048026,-0.009764566031377762,-0.019884676635311915
1761140483677322800,4.40932275390625,0.03118599638044834,0.0023257578001357614,-0.010538737874804064
1761140483687383000,4.419383056640625,0.03552665593326092,-0.00776298041800037,-0.016034622744191436
1761140483697441800,4.42944189453125,0.03687456341087818,-0.00854008400402963,-0.007466088963812217
1761140483707501000,4.4395009765625,0.034328386059403415,-0.0031644736465997994,-0.007929231229843571
1761140483717559800,4.449559814453125,0.04031681281924247,0.00535723445052281,-0.0031040760957170275
1761140483727618800,4.459618896484375,0.0543845011383295,0.00045395431257784367,0.007400713843712583
1761140483737678800,4.469678955078125,0.04824877486228943,0.007204067893605679,-0.010589563879743217
1761140483747737900,4.47973779296875,0.04211597119569778,-0.005862663222011178,-0.014383019612263888
1761140483757796900,4.489796875,0.05034837749004364,-0.00653816959708929,0.00038235038109123707
1761140483767855900,4.49985595703125,0.0564846882879734,0.006282952727004886,-0.0015054726595059036
1761140483777915000,4.509914794921875,0.043320086288452145,0.010899269149731845,-0.011443806088902055
1761140483787975000,4.519974853515625,0.04751052371561527,-0.005445077130757272,0.005424691929854453
1761140483798034000,4.530033935546875,0.05214812038838863,0.00991434976560995,0.0018739315125625578
1761140483808093000,4.540093017578125,0.054693713217973706,0.0038572599500417705,0.01168642833889462
1761140483818152000,4.55015185546875,0.037038229539990426,0.019499029185436664,0.0018242014861665665
1761140483828211000,4.5602109375,0.054098085412383076,0.011300123301893472,-0.019891480835434048
1761140483838271000,4.57027099609375,0.05395195493996143,0.008986549129895865,-0.0038808052224107085
1761140483848329700,4.580329833984375,0.04362871384620666,-0.010341105544008314,0.002031524093914777
1761140483858389000,4.590388916015625,0.04482347658872604,-0.010068188620451838,-0.004776301890565082
1761140483868447700,4.60044775390625,0.05245148724913597,-0.001965107794199139,0.0053461285346187645
1761140483878507000,4.610507080078125,0.04840718029439449,-0.004828991059027612,-0.001592392891133204
1761140483888567000,4.620567138671875,0.03553834637105465,-0.010924403590988367,-0.004564266575081273
1761140483898625800,4.630625732421875,0.049753334206342696,-0.005854096323065459,0.007508229338796809
1761140483908685000,4.64068505859375,0.0443675495147705,0.0038359614336863157,0.001105997613677755
1761140483918743800,4.650743896484375,0.04541910439431667,-0.002821560226753354,0.008023576716100796
1761140483928803800,4.660803955078125,0.044673838984966276,0.0030041502520442008,0.0004458714708220213
1761140483938862800,4.67086279296875,0.034947979262471195,0.005481554949935526,-0.003427508496958762
1761140483948921900,4.680921875,0.04452829303443431,0.000618259762506932,0.00003894377090036869
1761140483958980900,4.69098095703125,0.03390519221127033,-0.0008094897519797086,0.005601555467257276
1761140483969040000,4.701039794921875,0.026423896545171736,-0.008452624916285276,0.010730652850866317
1761140483979099600,4.711099609375,0.04213526041805744,-0.003307279650773853,-0.000645823622867465
1761140483989159000,4.721158935546875,0.055304538592696184,0.0013569493005983532,-0.004277412457717582
1761140483999217700,4.7312177734375,0.040190556091070175,-0.005508260293770581,-0.0026942349195014682
1761140484009277000,4.74127685546875,0.03315641967058182,-0.00815311224674806,0.004165850975178182
1761140484019335700,4.751335693359375,0.035998949620127674,-0.00978014719299972,0.007305747302947565
1761140484029395700,4.761395751953125,0.0389911171734333,0.005030778975132853,-0.005041610896401107
1761140484039455000,4.771455078125,0.03674655311703682,0.00835610573925078,0.007007138815708458
1761140484049513700,4.781513671875,0.03898994812965393,0.009239647108130156,0.004909298886777833
1761140484059573000,4.791572998046875,0.043480829808115955,-0.0030045338445343077,0.007000553811294958
1761140484069631700,4.8016318359375,0.04557926339209079,0.006360639339406043,0.003256636308925226
1761140484079691800,4.81169189453125,0.04453296920955181,-0.0038075025241822,0.005184974023001269
1761140484089750800,4.821750732421875,0.029269933626055716,-0.0003497998183593154,0.002353285127878189
1761140484099809800,4.831809814453125,0.05246551577448844,0.0011555449769832193,-0.004711538691818714
1761140484109868800,4.841868896484375,0.04618248998224735,-0.013875471948925406,-0.01123979881624691
1761140484119927800,4.851927734375,0.04633446567356586,0.002545921623148024,0.0026257088610902425
1761140484129987800,4.86198779296875,0.03286766585707664,0.0039551764997188,0.00662035885467194
1761140484140046800,4.872046875,0.03885433905124664,-0.003269212662708014,-0.009206895615998655
1761140484150105900,4.88210595703125,0.04574176047742366,0.001013086032681167,0.013907556720776483
1761140484160164900,4.892164794921875,0.028085107755661008,0.010394799359468743,0.00911923559885472
1761140484170223900,4.902223876953125,0.03646890521943569,-0.005030139654316008,-0.001410524385049939
1761140484180284000,4.912283935546875,0.04484861102998256,-0.006699789899587631,0.0006867127556819468
1761140484190343000,4.922343017578125,0.04574176047742366,-0.014109116308018565,0.0075911035829689345
1761140484200401700,4.932401611328125,0.04873451255261898,-0.00750401895456016,0.0028304741855710745
1761140484210461000,4.9424609375,0.046940030351281165,0.007850530837289989,0.005691279577324166
1761140484220519700,4.952519775390625,0.03571837911307812,0.0015182590758427976,-0.0026523594059981405
1761140484230580000,4.962580078125,0.03915887495577335,0.0015438045090530067,-0.0010669533780775964
1761140484240639000,4.972638916015625,0.04829086043834686,0.00579945265953429,0.014676467867195606
1761140484250697700,4.98269775390625,0.041706805872917176,-0.005729693625262007,0.01858153074802831
1761140484260757000,4.992757080078125,0.03811374981701374,-0.011542398492014034,0.0031821645669173446
1761140484270815700,5.002815673828125,0.042004327514767646,0.0006134739895351231,0.009687610071338712
1761140484280876000,5.0128759765625,0.0346732539743185,0.0012685312316287308,0.003344086263515055
1761140484290934800,5.022934814453125,0.03347673766613007,-0.000401164679415524,-0.006215175587264821
1761140484300993800,5.032993896484375,0.05801788920462131,-0.009229098314652219,0.007908508102223277
1761140484311052800,5.043052734375,0.0533779544442892,-0.01841518860463984,-0.0005786401381716132
1761140484321111800,5.05311181640625,0.03512099774181843,-0.0015234558407682924,0.001282952482625842
1761140484331171800,5.063171875,0.03826221837699413,-0.008921566735440865,0.0014702917482703924
1761140484341230800,5.07323095703125,0.03871113118827343,-0.008689931670343503,0.007202314327936619
1761140484351289900,5.083289794921875,0.04484744198620319,-0.008131137876957654,-0.008187982630729675
1761140484361348900,5.093348876953125,0.04739245029389858,-0.013674917008681222,-0.002848530432069674
1761140484371408000,5.103407958984375,0.04978665195405483,-0.003812370495544746,0.00041564986249431965
1761140484381468000,5.113468017578125,0.04589548973441124,-0.0022187902943231162,-0.0038565658302977678
1761140484391527000,5.12352685546875,0.05367606060802936,-0.0019247027185745535,0.0013013740553054958
1761140484401586000,5.1335859375,0.04095744881033897,-0.0021516342090908435,-0.002771245678467676
1761140484411645000,5.14364501953125,0.039161797565221784,-0.0047961573685053735,0.006115843398636207
1761140484421704000,5.153703857421875,0.04544540787935257,-0.015283082857681438,0.013972785710403696
1761140484431764000,5.163763916015625,0.042000820383429525,-0.0031563725385349243,0.001209604118624702
1761140484441822700,5.17382275390625,0.026736615756154058,-0.009114294562255962,0.00997452812078409
1761140484451882000,5.183882080078125,0.049482700571417806,-0.010403576320968567,-0.005455881652561947
1761140484461940700,5.193940673828125,0.047834933364391326,-0.0049271724701859055,-0.007125952022941783
1761140484472000000,5.204,0.03825754220187664,-0.0012470500521827488,-0.004987003765488043
1761140484482060000,5.21406005859375,0.042297172981500625,-0.0007106233542319387,0.0072192289301194245
1761140484492118800,5.224118896484375,0.04154840044081211,-0.00209439672967419,0.024176199816772714
1761140484502178000,5.234177978515625,0.054418987929821014,0.007035168466949835,0.012736878106743097
1761140484512236800,5.24423681640625,0.03795885151624679,-0.0065873151015955955,0.012130372714111581
1761140484522296000,5.254296142578125,0.038705285969376564,-0.004093644255492836,0.0004597995314747095
1761140484532355800,5.26435595703125,0.04274550127089023,0.0023519882199354468,-0.014205416289344429
1761140484542414800,5.274414794921875,0.0418494292140007,-0.007125696294615045,-0.0036246019716374574
1761140484552473900,5.284473876953125,0.023595395120978354,0.0065660987836308774,0.015944076650217173
1761140484562532900,5.294532958984375,0.043945524710416795,0.012649857410416005,0.013031997728953137
1761140484572591900,5.304591796875,0.03975625632703304,-0.002864933577599004,-0.008290383559279144
1761140484582652000,5.31465185546875,0.03691372637748718,-0.0049020471620839084,-0.002652916528424248
1761140484592711000,5.3247109375,0.051579380589723584,0.0018041359456721692,0.004718406824022531
1761140484602770000,5.33477001953125,0.049932782426476474,-0.0077853292471263555,0.009012532954523339
1761140484612829000,5.344828857421875,0.05531973616182804,-0.00367943743141368,0.011813552716746925
1761140484622888000,5.354887939453125,0.04155658374726772,0.006903112185653299,0.005712760756770148
1761140484632948000,5.364947998046875,0.05921499003469944,-0.006645064037665725,0.015700559351081028
1761140484643006700,5.3750068359375,0.043503041639924044,-0.009296053470484912,-0.0035162644926458597
1761140484653066000,5.38506591796875,0.045448330488801,-0.010918457907391712,0.0021915369612164792
1761140484663124700,5.395124755859375,0.050984921827912325,-0.00973950465535745,0.0014228906762786208
1761140484673184000,5.40518408203125,0.03631926761567592,-0.016760096607683225,0.0031050624764058735
1761140484683243800,5.415243896484375,0.03541910390555859,0.0006102956517599523,0.012233129835687577
1761140484693302800,5.425302734375,0.04080664216279983,-0.009473793790722265,0.014897216212097554
1761140484703361800,5.43536181640625,0.05143149655163288,-0.010365600664447992,0.008048893820447846
1761140484713420800,5.4454208984375,0.04649345562756061,0.002142994244908914,0.004528281946247444
1761140484723479800,5.455479736328125,0.05023322667777538,0.010747594852512702,-0.010580951315024867
1761140484733539800,5.465539794921875,0.0599573328346014,-0.014577638002065942,-0.009722882314119488
1761140484743598800,5.475598876953125,0.050230888590216634,-0.00590240157735534,-0.0011987995968200265
1761140484753657900,5.485657958984375,0.046937692263722415,-0.002911740994546562,-0.00667041767463088
1761140484763716900,5.495716796875,0.04095277263522148,0.001931050260970369,-0.0027452435875311492
1761140484773776000,5.50577587890625,0.04349252024590969,-0.00506782304989174,0.0007127605123911052
1761140484783836000,5.5158359375,0.040946342894434926,0.0034375914995558557,-0.00802316572414711
1761140484793894700,5.525894775390625,0.04005202440321445,-0.01815084771318361,0.0007078194757923484
1761140484803954000,5.535953857421875,0.03825812672376633,0.004410226790839806,0.013812343584839255
1761140484814012700,5.5460126953125,0.048883565634489055,-0.0002662679870612919,0.012263095715688541
1761140484824072000,5.556072021484375,0.03796235864758491,-0.0002449877370148897,-0.0009077990273013711
1761140484834132000,5.566132080078125,0.04350128807425499,-0.0006774882696103304,0.011241113990498706
1761140484844190700,5.576190673828125,0.03991173914968967,-0.0026012228738050906,-0.011693022476462646
1761140484854250000,5.58625,0.05981295592784881,-0.001280258202040568,-0.018330679525807497
1761140484864308500,5.59630859375,0.04724515077769756,-0.0007652030856814235,0.0036831728916149583
1761140484874367700,5.60636767578125,0.045153146934509274,-0.01189049954363145,0.024644648445583877
1761140484884427500,5.616427490234375,0.0503892940223217,0.000708458796609193,0.0057093723564408715
1761140484894486800,5.62648681640625,0.050838206833601,-0.005768034607963636,0.001012044853065163
1761140484904545500,5.636545654296875,0.04290682931244373,-0.022904481114214285,0.0037529958579689262
1761140484914604500,5.6466044921875,0.044701311513781546,-0.0005756992624141276,-0.01873350643934682
1761140484924663600,5.65666357421875,0.041108839979767796,0.0005804850353859364,0.0004708049826789647
1761140484934723600,5.6667236328125,0.05427519554495811,0.012606831119442358,0.018795146099245173
1761140484944782800,5.676782958984375,0.048887072765827176,-0.0026123196565546094,0.0003257430893369019
1761140484954841600,5.686841552734375,0.054421910539269445,0.005917653945414349,-0.002663163927802816
1761140484964900600,5.696900634765625,0.03391805169284343,-0.003705211193487048,0.005430655879760161
1761140484974959600,5.706959716796875,0.036463060000538824,-0.017189144807867703,-0.0028972740777768193
1761140484985019600,5.71701953125,0.04349602737724781,-0.003711887529445812,-0.008281058608507736
1761140484995078700,5.72707861328125,0.035713702937960626,-0.009967924850061535,0.007720447317371144
1761140485005137700,5.7371376953125,0.0427425786614418,0.004055568134272471,-0.014874200662691146
1761140485015196700,5.74719677734375,0.048880643025040624,0.008726564753148704,-0.017006015926459804
1761140485025255700,5.757255615234375,0.03376666052341461,0.005410334610939025,0.005410919132828712
1761140485035314400,5.767314453125,0.045887890949845314,-0.006857154152076691,0.0183711941992864
1761140485045374700,5.777374755859375,0.035114568001031875,-0.009408044211287051,-0.009117536832112819
1761140485055433700,5.787433837890625,0.03690846568048,0.0035270507481414822,-0.006053564417921006
1761140485065492700,5.79749267578125,0.04244564154148102,0.004726864125113934,0.0022278777830768374
1761140485075551700,5.8075517578125,0.04244681058526039,-0.0031120219401549547,0.00197301710601896
1761140485085610800,5.81761083984375,0.040055531534552574,-0.010155894303368404,0.0075153714656364164
1761140485095670800,5.8276708984375,0.035567572465538974,-0.006386760161351412,-0.0027722411923110485
1761140485105729500,5.8377294921875,0.038111996251344676,0.0019938041657209396,0.0024815420168917625
1761140485115788800,5.847788818359375,0.038109658163785934,0.00036860498352907597,-0.002451092079700902
1761140485125847600,5.85784765625,0.03796177412569523,-0.004207589491363614,0.018231192073551936
1761140485135907600,5.867907470703125,0.053824529168009755,0.00084379388038069,-0.01749910580618307
1761140485145966800,5.877966796875,0.04873568159639835,-0.0023926033581141383,0.0010211962739005685
1761140485156025600,5.888025634765625,0.03601648527681827,-0.004119171422393993,0.002268702983809635
1761140485166084900,5.8980849609375,0.03796177412569523,0.005932129995338618,-0.012055581311695276
1761140485176143600,5.9081435546875,0.05172784914970398,0.010394589296914636,-0.008345940538262948
1761140485186203000,5.918202880859375,0.04993336694836616,0.0031744013855699448,-0.0018619396806694565
1761140485196262700,5.9282626953125,0.05173077175915241,-0.005151254416489974,0.005493428050819784
1761140485206321700,5.93832177734375,0.052777065941691396,-0.011698831162741407,0.00797989283800125
1761140485216380700,5.948380615234375,0.04679156179130077,-0.0007930957396049052,0.00420887726615183
1761140485226439700,5.958439697265625,0.048290275916457175,-0.000473608861118555,0.010672054531425237
1761140485236498700,5.968498779296875,0.04589665877819061,0.00754779416420497,0.003918168957578018
1761140485246558700,5.978558837890625,0.04739420385956764,0.004205698928376659,-0.004435443430487066
1761140485256617500,5.988617431640625,0.03617255262136459,-0.0006230272691696882,0.001879959394549951
1761140485266676700,5.9986767578125,0.04455459651947021,0.01248512270222418,-0.01569399261297658
1761140485276735500,6.008735595703125,0.05727671544849872,0.0008989490005653351,9.863806888461112e-7
1761140485286794800,6.018794677734375,0.032139936104416844,0.0004613978335168212,0.013922909553535283
1761140485296854800,6.028854736328125,0.03782441148161888,0.0004293313279747963,-0.005404854718223214
1761140485306913500,6.03891357421875,0.04979600430428981,0.005946596912108361,-0.000898117883503437
1761140485316972800,6.048972900390625,0.04725274956226349,-0.0027356263758148997,0.006173007812816649
1761140485327031600,6.059031494140625,0.03558335455656052,-0.007504092019796371,0.004838316009799018
1761140485337090800,6.0690908203125,0.05488368283212185,-0.0044497916162479665,0.013807466480322182
1761140485347150600,6.079150634765625,0.04081774807870388,-0.0175092710071709,-0.002107247078092769
1761140485357209600,6.089209716796875,0.043510055902600285,-0.007284238724038004,0.00370097340978682
1761140485367268600,6.0992685546875,0.05891980648040771,-0.0020216328875627366,0.0062048003237228835
1761140485377327600,6.10932763671875,0.0364729968726635,0.0019287943718023597,0.016228300419077277
1761140485387386600,6.11938671875,0.042909167400002474,0.0009453362924046814,0.022079711594711986
1761140485397446700,6.12944677734375,0.03842179285287857,-0.01430127787925303,0.0024545535452663897
1761140485407505700,6.139505615234375,0.04156301348805427,-0.006291072101378813,0.006193794872518628
1761140485417564700,6.149564697265625,0.05218552978932857,-0.002097547667985782,0.018780030728504062
1761140485427623700,6.159623779296875,0.050537178060412406,0.0028119430150371043,0.003800196000561118
1761140485437682700,6.1696826171875,0.04454992034435272,-0.003900414105178788,0.00022905038236640393
1761140485447742700,6.17974267578125,0.031978608062863345,-0.0023700170669704672,0.008517406381340697
1761140485457801500,6.189801513671875,0.029735213050246238,-0.009632263154909015,0.00896865728017874
1761140485467860700,6.19986083984375,0.046644846796989436,-0.007197492022346705,0.00424050538027659
1761140485477919500,6.20991943359375,0.04574935926198959,-0.005810732105374336,-0.003918607348995283
1761140485487978800,6.219978759765625,0.04186111965179443,-0.005726195627078413,0.011733162690605968
1761140485498038800,6.230038818359375,0.03617605975270271,-0.006715699854772538,0.004265502824215218
1761140485508097500,6.24009765625,0.030189386558532712,-0.008744812795892357,-0.004880867376737296
1761140485518156800,6.25015673828125,0.047394788381457324,0.0002606876296456903,0.019635715976078064
1761140485528215600,6.260215576171875,0.04545008405447006,0.009176938869152218,-0.007901749567873775
1761140485538274800,6.27027490234375,0.03931143516898155,-0.0004906787269283086,0.010351818734267725
1761140485548334600,6.28033447265625,0.03631692952811718,0.00810542804696597,-0.00018469978398643434
1761140485558393600,6.2903935546875,0.04095394167900085,0.0008811484823934734,-0.002744257206842303
1761140485568452600,6.30045263671875,0.02853518961071968,-0.00007030702354386448,0.0002698116510175168
1761140485578511600,6.31051171875,0.03332125484347343,-0.020189440868701784,-0.005930705223232508
1761140485588570600,6.320570556640625,0.055017538344860076,-0.007586144280061126,0.004795143588352948
1761140485598630700,6.330630615234375,0.04813362405002117,-0.008191827688785269,0.0035048206500243395
1761140485608689700,6.340689697265625,0.029280455020070074,-0.015908895738981663,-0.003096395112760365
1761140485618748700,6.350748779296875,0.03795885151624679,-0.01755918369665742,0.008986539996741339
1761140485628807400,6.360807373046875,0.05681318958997726,0.009031219388684257,0.01593961053765379
1761140485638866700,6.37086669921875,0.04124912523329258,-0.00696914489287883,-0.008725286111515015
1761140485648926700,6.3809267578125,0.03421615785658359,0.007538469213433563,0.00712059999438934
1761140485658985700,6.39098583984375,0.022242811468243598,-0.009940534519637003,0.013146162160532548
1761140485669044700,6.401044677734375,0.026284195813536644,-0.0045592250737827265,0.00786064123935066
1761140485679103500,6.411103515625,0.04020166200697422,-0.0030142606541048735,0.002489935385901481
1761140485689162800,6.421162841796875,0.03720949445366859,0.008155176339671015,0.00043429976403713225
1761140485699221500,6.431221435546875,0.04887947398126125,0.011175455742608755,0.015016988400556146
1761140485709281800,6.44128173828125,0.032417584002017975,0.002574544929433614,0.008404904183885082
1761140485719340500,6.451340576171875,0.04977262342870235,-0.012494831245485692,-0.005228256042301655
1761140485729399800,6.46139990234375,0.05231763173639774,-0.008476827775780111,-0.008904588201176374
1761140485739458600,6.47145849609375,0.04424012374281883,-0.010411175105534493,-0.019611640980746595
1761140485749517600,6.481517578125,0.06683657095432281,0.010899451812822371,0.009734874146012588
1761140485759577900,6.491577880859375,0.054718263137340545,-0.0030889059260487553,0.0032464437084738164
1761140485769636600,6.50163671875,0.047235798427462575,0.011946485780877992,-0.00045870355293154715
1761140485779695900,6.51169580078125,0.04439268395602703,-0.015594368163403123,0.005804092302033677
1761140485789754600,6.521754638671875,0.053071080452203746,-0.010831884735636413,-0.001127378328423947
1761140485799813600,6.531813720703125,0.0605541296839714,-0.006029827349307015,0.01078288536160253
1761140485809873700,6.541873779296875,0.05561725780367851,0.0007250537383835762,0.0007304514327086508
1761140485819932700,6.5519326171875,0.04349836546480655,-0.01271084861634299,-0.0014990520518738777
1761140485829991700,6.56199169921875,0.042004327514767646,0.002765373060107231,0.021188041718304157
1761140485840050700,6.57205078125,0.031081951484084127,0.006921396761015057,0.013017832206282763
1761140485850109700,6.582109619140625,0.0472433972120285,0.007613105352222919,0.002972540404228493
1761140485860169500,6.59216943359375,0.04559679904878139,-0.004652237119479105,0.004695610470324754
1761140485870228500,6.602228515625,0.03661678925752639,0.002942693255236372,-0.005203085068427026
1761140485880287500,6.61228759765625,0.04813888474702835,-0.015101488346233963,0.003381048139883205
1761140485890346500,6.622346435546875,0.042754269099235534,-0.026138202338432892,0.01870347662726417
1761140485900405800,6.63240576171875,0.05068330853283405,-0.004071742950938642,0.021075028064195065
1761140485910465500,6.642465576171875,0.03871054666638374,0.003046911681536585,0.010517969081411137
1761140485920524500,6.652524658203125,0.03496785300672054,-0.008747452277550473,0.008620081304525956
1761140485930583600,6.66258349609375,0.035866847673058505,0.004658045805757865,0.0012986432421021163
1761140485940642600,6.672642578125,0.04409516231417656,-0.0010729629937559365,-0.014247748460574075
1761140485950701600,6.68270166015625,0.030327333724498747,0.00157795337382704,-0.00018011494041420518
1761140485960761600,6.69276171875,0.046935938698053355,0.0000754215900786221,-0.003390309158572927
1761140485970820400,6.7028203125,0.03466565518975258,-0.0056740818473510445,0.0035917408816516397
1761140485980879600,6.712879638671875,0.04693710774183273,0.004582578549906611,-0.007028309467900544
1761140485990938400,6.7229384765625,0.04828209261000156,-0.0006406451242510229,0.006755292079644278
1761140486000997600,6.73299755859375,0.038403088152408595,-0.0048491387979127465,0.002813020727271214
1761140486011057700,6.7430576171875,0.04049918364882469,-0.006464264110662043,0.015461435099272057
1761140486021116400,6.753116455078125,0.038705870491266246,-0.00788946547503583,0.009432055274536832
1761140486031175700,6.76317578125,0.035113398957252503,-0.005440044762613252,0.014644858019379899
1761140486041234400,6.773234375,0.028232407271862027,0.001022630179161206,0.012431100093200802
1761140486051293700,6.783293701171875,0.03197393188774585,-0.00556290395730175,-0.009217471808940171
1761140486061352400,6.7933525390625,0.02598842773735523,-0.0011278349861502646,0.009694350339379161
1761140486071412500,6.80341259765625,0.037509938704967494,-0.00007617050874978304,0.008755946111259981
1761140486081471500,6.813471435546875,0.028981179812550543,0.0027027013537473973,-0.004589939872454852
1761140486091530500,6.823530517578125,0.03691255733370781,0.010088939147535711,-0.016034147820156067
1761140486101589500,6.833589599609375,0.05457096362113952,0.0010526508580893277,0.004905727823358029
1761140486111648500,6.8436484375,0.05157821154594421,-0.007408869750704616,0.014396746743516996
1761140486121708500,6.85370849609375,0.04738777411878109,-0.004290299338754266,0.0032134090885519977
1761140486131767600,6.863767578125,0.05502046095430851,0.014618490602262318,-0.012181226118514313
1761140486141826600,6.87382666015625,0.04843465282320976,0.005626151052396744,0.0026161555814556777
1761140486151885600,6.883885498046875,0.05726268692314625,0.0031256029409356414,0.00007043488770723343
1761140486161944600,6.893944580078125,0.04708732986748218,0.017324927416210993,0.0018446049533784388
1761140486172004400,6.90400439453125,0.03990764749646187,-0.005535796754667535,-0.0013736081744544206
1761140486182063600,6.914063720703125,0.041105917370319364,0.004559773063054308,0.0029385650693904606
1761140486192122400,6.924122314453125,0.03078209175467491,-0.0047027982629369944,0.010504579876875504
1761140486202181600,6.934181640625,0.03736848440766334,-0.0037473607016261664,0.01566729640229605
1761140486212240400,6.944240478515625,0.04694587557017803,0.002387945449305698,0.0022509207319468256
1761140486222300400,6.954300537109375,0.05038754045665264,-0.008842528416169807,0.0013588307304307817
1761140486232359400,6.964359375,0.04200783464610577,-0.0022104334579315034,0.0017297555352095513
1761140486242418400,6.97441845703125,0.049939796689152716,-0.004535195744223892,0.004543570846924558
1761140486252477700,6.984477783203125,0.05517886638641357,0.010060480238031595,-0.003324258185038343
1761140486262536400,6.994536376953125,0.050838206833601,0.003453930713003501,-0.005978964811749756
1761140486272596500,7.004596435546875,0.03901683613657951,-0.010232210942590608,-0.013258563893288373
1761140486282655500,7.014655517578125,0.03512742748260498,-0.0031520525564439593,-0.017776461442839352
1761140486292714500,7.024714599609375,0.032583588218688966,-0.0009118450147565454,0.008576561823207884
1761140486302773500,7.0347734375,0.038570261412858964,-0.0031951884452719238,-0.023703047613380476
1761140486312832500,7.04483251953125,0.0475485176384449,-0.005120256490027532,-0.0007456581349950283
1761140486322892500,7.054892578125,0.03393091117441654,-0.011194078244687988,0.001674052425753325
1761140486332951600,7.06495166015625,0.023159341791272162,-0.018474353179661555,0.0017026117999572306
1761140486343010300,7.07501025390625,0.0491997919768095,-0.005345032556075603,-0.0023166246456094086
1761140486353069600,7.085069580078125,0.045158992153406144,-0.00198175753490068,0.004464742590207607
1761140486363128300,7.09512841796875,0.027350363740324974,-0.004555553545663133,0.009563527033943682
1761140486373188600,7.105188720703125,0.03842413094043731,-0.0021930987306404857,0.005255043584527447
1761140486383247600,7.11524755859375,0.05249065021574497,-0.00039607751234434544,-0.004566230203304439
1761140486393306400,7.125306396484375,0.04470832577645779,0.0032165326274000107,0.00042324864706024527
1761140486403365600,7.13536572265625,0.055333764687180514,0.004261794763477519,0.002001010224642232
1761140486413424400,7.14542431640625,0.033788287833333014,0.0037300716401077803,-0.0137576359892264
1761140486423483600,7.155483642578125,0.031247371178865432,-0.0003830353676807135,-0.02120315708904527
1761140486433543400,7.16554345703125,0.03663666300177574,-0.007606620812509208,0.009144233042793349
1761140486443602700,7.175602783203125,0.03559036881923675,-0.002923815024830401,0.003776385866710916
1761140486453661400,7.185661376953125,0.05219897379279136,-0.007651254538679495,-0.0002971837151329964
1761140486463720400,7.195720458984375,0.04396773654222488,-0.009112577529205008,0.004924286393355578
1761140486473779500,7.205779541015625,0.03438976085782051,-0.004282070366526022,0.0022930519737768915
1761140486483839500,7.215839599609375,0.027655484166741368,-0.002892451772186905,0.011223587466962635
1761140486493898800,7.225898681640625,0.039627076989412306,-0.0083834230044391,0.009570760492328554
1761140486503957500,7.23595751953125,0.03259469413459301,0.005464357219962403,0.007754276521736755
1761140486514016500,7.2460166015625,0.024065350720286368,0.0030606388127896933,-0.008860338067496195
1761140486524075500,7.256075439453125,0.03661971186697483,-0.01433385584144853,-0.01738145250957459
1761140486534135600,7.266135498046875,0.025994857478141783,-0.009916011999733746,-0.008558450777782127
1761140486544194600,7.276194580078125,0.07013385893404483,0.0029569866420701145,0.0052233789377845825
1761140486554253600,7.286253662109375,0.037062194937467575,-0.01087531288540922,0.0020275329053867606
1761140486564312600,7.2963125,0.04498948080539703,-0.0016561971086543053,0.015484423249214887
1761140486574371600,7.30637158203125,0.04333879098892212,-0.000671031129360199,0.0006719992437399923
1761140486584431400,7.316431396484375,0.05216097986996174,0.000058826648304238915,0.001188588730059564
1761140486594490600,7.32649072265625,0.05380348637998104,-0.016190836219210178,-0.01502444105464965
1761140486604549600,7.336549560546875,0.04197977759540081,0.011652909661782904,0.006017150530824437
1761140486614608600,7.346608642578125,0.03928337811827659,-0.010566283468855544,0.011413557081110776
1761140486624667600,7.356667724609375,0.052602293896675104,-0.01208159253578633,0.005004749484732747
1761140486634727400,7.3667275390625,0.04811316578388214,-0.01762602012148127,0.0013978293002583086
1761140486644786700,7.37678662109375,0.04392155931293964,-0.0011516999189276247,-0.013220049380650743
1761140486654845400,7.386845458984375,0.05484042821228504,0.0027566600306890903,-0.00981700860466808
1761140486664904700,7.39690478515625,0.05124795667827129,-0.016306060096714644,0.010957219015201553
1761140486674963500,7.40696337890625,0.03388648751080036,-0.0017058175371959805,0.009439544461248442
1761140486685023500,7.4170234375,0.027301848423480986,-0.003907711495645344,0.009292564605455845
1761140486695082500,7.42708251953125,0.04735445637106895,-0.002782735186861828,0.0015013262073509395
1761140486705141500,7.4371416015625,0.038380876320600506,-0.0020574439864605664,0.013316961283329874
1761140486715200500,7.447200439453125,0.04212532354593277,-0.010505977249518036,0.0044038792484439905
1761140486725259500,7.457259521484375,0.05529693980813026,0.0036191403452306985,-0.019813894687732682
1761140486735318500,7.467318603515625,0.04721709372699261,0.0052991110551171006,0.006935370487440377
1761140486745378600,7.477378662109375,0.0514046085447073,-0.01639825015850365,0.013214651686325669
1761140486755437600,7.4874375,0.032552608558535576,-0.009838398452568798,0.011822612806037068
1761140486765496600,7.49749658203125,0.03794131585955619,-0.012510850798524915,0.007614657988492399
1761140486775555600,7.5075556640625,0.028368016350269316,-0.002871591647248715,-0.00806070298925042
1761140486785614600,7.517614501953125,0.04034019369482994,-0.0032308716800063847,0.01024633079948835
1761140486795674600,7.527674560546875,0.050067806982994074,0.0067320756008382885,0.006524990455107763
1761140486805733400,7.5377333984375,0.04767652793228626,-0.012503142416104673,0.008418393853120505
1761140486815792600,7.547792724609375,0.03720423375666141,-0.014854189921123907,-0.008272592174261809
1761140486825851400,7.557851318359375,0.03944996685683727,-0.010665478660166263,-0.00604639489161782
1761140486835910700,7.56791064453125,0.04124912523329258,-0.005650454376591369,0.005797982221655547
1761140486845970700,7.577970703125,0.04783960953950882,-0.011318417010409757,0.017531601569987832
1761140486856029400,7.588029541015625,0.03901566709280014,-0.009951841364940628,-0.007449119562702253
1761140486866088400,7.59808837890625,0.02046586492359638,-0.011190580246504395,-0.004068464148463681
1761140486876147200,7.608147216796875,0.05129939460456371,-0.006917515170341357,-0.006632569882273674
1761140486886206500,7.61820654296875,0.043221302089095116,-0.014480479504214598,0.025044762812228873
1761140486896266500,7.6282666015625,0.04621697677373886,-0.012489196089142932,0.007631472125975414
1761140486906325200,7.6383251953125,0.02437105566859245,0.005116201369417831,-0.012218416323745623
1761140486916384500,7.648384521484375,0.03694295247197151,0.0007408906283322721,-0.006084425347065553
1761140486926443300,7.658443359375,0.04188274696171283,-0.003223994414648041,-0.00033449265137314795
1761140486936502500,7.66850244140625,0.04697393262088299,0.009651716774050146,0.009044663392147049
1761140486946561300,7.678561279296875,0.050717795324325556,-0.00970146506675519,-0.0018719496180303393
1761140486956621300,7.688621337890625,0.0360544791996479,-0.0003888349208049476,-0.010984490614617242
1761140486966680300,7.698680419921875,0.03874970963299274,0.005266341296676546,-0.008009913516929373
1761140486976739300,7.7087392578125,0.041892683833837506,-0.01020841907504946,0.011692465354036539
1761140486986798300,7.71879833984375,0.04249357233643532,-0.006083813425712287,-0.007359906909288838
1761140486996857300,7.728857421875,0.04309270727336406,-0.007661949462629854,-0.011267654937552288
1761140487006917400,7.73891748046875,0.049231356158852574,-0.009104942212020978,-0.0030466650863643736
1761140487016976400,7.748976318359375,0.05402034400105476,-0.0031198673198930917,0.024408949126722288
1761140487027035400,7.759035400390625,0.04548924702107906,0.002321994940470904,-0.002609826305368915
1761140487037094400,7.769094482421875,0.05431845016479492,-0.00884883029279299,0.0006195658036042004
1761140487047153400,7.7791533203125,0.042349195429682726,0.002301554940640926,0.011300543427001684
1761140487057213200,7.789213134765625,0.039057752668857575,-0.00473881942438893,-0.0011033763983286917
1761140487067272400,7.7992724609375,0.031876901254057885,-0.003526347495242953,0.005174215166969224
1761140487077331200,7.809331298828125,0.04190145166218281,-0.01986307672485709,0.013014279409172012
1761140487087390500,7.819390380859375,0.037710429713129996,-0.010638179661286995,0.016911423845030367
1761140487097449200,7.82944921875,0.041003626039624215,-0.005352868802659214,-0.014223682598397135
1761140487107509200,7.83950927734375,0.045941082441806794,-0.0057630661719013,-0.001804747867025435
1761140487117568300,7.849568359375,0.0447469042211771,-0.009730271036131307,0.00614253047616221
1761140487127627300,7.859627197265625,0.030682138511538504,-0.008041495965281501,0.005948186080995947
1761140487137686300,7.869686279296875,0.032329321196675295,-0.009864747603377327,-0.002992953004594892
1761140487147745300,7.879745361328125,0.04040858275592327,0.011928877058951183,0.0022676618041936308
1761140487157805600,7.8898056640625,0.0374140771150589,-0.0037027726412285117,-0.0028518914329353716
1761140487167864300,7.8998642578125,0.047588849648833274,-0.008786441714223475,-0.0003598919541109353
1761140487177923300,7.90992333984375,0.05402151304483414,0.00008413461949676274,0.020516371268127113
1761140487187982300,7.919982421875,0.03890986863076687,-0.001529164062347263,0.007773730140877887
1761140487198041300,7.930041259765625,0.045943420529365536,-0.0017884269198868423,-0.016240520579833537
1761140487208101400,7.940101318359375,0.04579378292560577,-0.009095078405132517,0.004887507180077954
1761140487218160400,7.950160400390625,0.044299160453677176,-0.012535446383664384,-0.006979730218974873
1761140487228219400,7.960219482421875,0.030681553989648818,-0.008247402934078127,0.00543797153653577
1761140487238278400,7.9702783203125,0.04594458957314491,0.0006156294140033424,-0.003499349890463054
1761140487248337200,7.980337158203125,0.03098258276283741,-0.004895078565180302,0.010565324487630277
1761140487258397400,7.9903974609375,0.03412614148557186,0.008451958196004852,0.011425822907639667
1761140487268456400,8.00045654296875,0.04221007921993732,-0.0058641610593535,0.0068940246968995774
1761140487278515500,8.010515380859376,0.04460778801143169,-0.010256112407986073,0.0044093774074688554
1761140487288574500,8.020574462890625,0.046103579527139664,-0.005571479989401996,-0.003690333284763619
1761140487298633200,8.03063330078125,0.02709901932775974,-0.00010989011526107787,-0.009001427038619295
1761140487308692500,8.0406923828125,0.029191607692837712,-0.01178178760530427,-0.004837530558509752
1761140487318752300,8.050752197265625,0.037272622817754744,0.007205392201012,-0.014360378522193058
1761140487328811500,8.0608115234375,0.033382629641890524,-0.002841443104157224,-0.001200388765707612
1761140487338870300,8.070870361328126,0.05148761065304279,0.003256033520726487,0.007793284224718809
1761140487348929300,8.08092919921875,0.04954115276038647,0.0027876122913789003,-0.00550666199172847
1761140487358988300,8.09098828125,0.052686465048789974,-0.006772033151891082,-0.0031989147723186758
1761140487369048300,8.10104833984375,0.040268297502398485,-0.013013375226873904,0.005948213480459525
1761140487379107600,8.111107666015625,0.025604396855831144,0.000994189535966143,-0.00782145087327808
1761140487389166300,8.121166259765625,0.04535714507400989,-0.0041108876512385905,-0.009148973149992525
1761140487399225600,8.1312255859375,0.042514615124464035,-0.00907363375830464,-0.003292118614260107
1761140487409284400,8.141284423828125,0.043862522602081296,-0.0031895624220836904,0.0014541808636859058
1761140487419344400,8.151344482421875,0.03563420796096325,0.007145396508928388,0.007849014733638615
1761140487429403400,8.1614033203125,0.0262076234459877,-0.0067128685768693686,-0.0029749698233325034
1761140487439462400,8.17146240234375,0.0420674558788538,0.0019452066504862158,-0.005685005100164562
1761140487449521400,8.181521484375,0.04595511096715927,0.007839534519240259,-0.0059714208261109885
1761140487459580400,8.191580322265626,0.037275545427203176,-0.0004518536870367825,-0.002920380958728492
1761140487469640200,8.20164013671875,0.045507951721549034,-0.008503487453842535,0.0010041081417817622
1761140487479699500,8.211699462890625,0.03877718216180801,0.0017852485821116715,0.015976764210266992
1761140487489758200,8.22175830078125,0.032041151905059816,-0.001260740650817752,-0.002042913137609139
1761140487499817500,8.2318173828125,0.0450561163008213,0.0075350351473316545,0.016199503582855684
1761140487509876200,8.241876220703125,0.032035891208052635,-0.004000065954215824,0.0028948994575999677
1761140487519936300,8.251936279296874,0.032037060251832006,-0.00401590284416452,0.003003666194854304
1761140487529995500,8.26199560546875,0.04296352793574333,-0.011348346357792615,0.006906327056046575
1761140487540054300,8.27205419921875,0.03982406086623668,-0.018129001207556575,0.01363247523959726
1761140487550113500,8.282113525390624,0.041617374023795124,-0.0057168432768434285,0.0007845197075046598
1761140487560172300,8.29217236328125,0.034297990921139714,-0.004146470421273261,-0.004328393726283684
1761140487570232300,8.302232421875,0.04017360495626926,-0.01167593434434384,0.008787446361221373
1761140487580291300,8.312291259765624,0.03610357903838157,-0.016854862219048663,0.033451164833456275
1761140487590350300,8.322350341796875,0.030150223591923712,-0.011126145841320975,0.006101833139592781
1761140487600409300,8.332409423828125,0.04957388598620891,-0.007099694203678518,0.007498091537272557
1761140487610468400,8.34246826171875,0.042865328258275985,0.0038834355709142982,0.001765721897734329
1761140487620528400,8.3525283203125,0.043889995130896566,0.0028673629967030136,0.003132735934620723
1761140487630587400,8.36258740234375,0.029097499668598172,0.003843907278124243,0.01305152441333048
1761140487640646400,8.372646484375,0.05541209062039852,-0.0023059023221954703,-0.0023058109906502065
1761140487650705400,8.382705322265625,0.034630583876371385,-0.009644939973391591,0.014906961287977173
1761140487660764400,8.392764404296875,0.03026712796986103,-0.0018068576257210223,0.02410358210513368
1761140487670823400,8.402823486328124,0.02729600320458412,0.006146676928317174,-0.003034207463590428
1761140487680883500,8.412883544921876,0.03161211283802986,0.004974582675332203,-0.0014534776107873767
1761140487690942200,8.422942138671875,0.03642623512148857,-0.009879241919610648,-0.015907032575458287
1761140487701001500,8.43300146484375,0.04163958585560321,-0.002979883460467681,-0.021276167526328934
1761140487711060200,8.443060302734375,0.033436990177631375,-0.0014280052428133785,0.0018379286174196748
1761140487721119500,8.453119384765625,0.03356032429635525,0.0022136665946338326,0.0011453523765318095
1761140487731179500,8.463179443359374,0.026707974183559417,-0.007514330286020413,0.01634566145474091
1761140487741238300,8.47323828125,0.05061667303740978,-0.007334644603868946,0.00042716677035205063
1761140487751297500,8.483297607421875,0.04496376184225082,-0.0024844646263401955,0.007158283389965072
1761140487761356300,8.493356201171874,0.03879588686227798,-0.01002395675308071,-0.005579699828475713
1761140487771415600,8.50341552734375,0.027606968849897384,-0.008581055335234851,0.0033815413302276283
1761140487781475300,8.513475341796875,0.0368517670571804,-0.008407077874662354,-0.00806751632252708
1761140487791534300,8.523534423828124,0.048560909551382064,-0.0038977563572116193,0.004233034459874034
1761140487801593300,8.53359326171875,0.04074234475493431,0.008288401664746925,-0.008148335606930778
1761140487811652400,8.54365234375,0.04152560408711433,-0.005158140815002843,-0.002334479962708428
1761140487821711400,8.55371142578125,0.03281038271188736,0.006925725876260548,0.00311651545218192
1761140487831771400,8.563771484375,0.044969607061147686,-0.012015276700770482,0.004293961733719333
1761140487841830100,8.573830078125,0.035058453899621964,-0.017974285569880157,-0.017488136887596917
1761140487851889400,8.583889404296874,0.04826514147520065,-0.004607566860690713,0.00775065979254432
1761140487861948200,8.5939482421875,0.04762742809355259,-0.012390859414357691,0.0030286545056384057
1761140487872008200,8.60400830078125,0.04631576097309589,-0.01392674547843635,0.009537798937642946
1761140487882068200,8.614068115234375,0.03535831362903118,-0.00421295978622511,0.0021526388560887426
1761140487892127000,8.624126953125,0.051558337801694866,-0.007983144241012633,0.01611171570154838
1761140487902186200,8.634186279296875,0.030572248396277427,-0.014469099593674763,-0.00839338727602735
1761140487912245000,8.644244873046874,0.04512041370868682,0.00027271599415689703,0.0030159685540013014
1761140487922304300,8.65430419921875,0.038052959540486334,0.000435898066079244,-0.011641995542123914
1761140487932364300,8.6643642578125,0.03449731288552284,-0.02305449317730963,0.005662893733056262
1761140487942423000,8.674423095703125,0.04407061239480972,-0.008540969920018687,-0.009230039029568433
1761140487952482300,8.684482421875,0.05289397031962871,-0.0041085130310617385,0.024444504497293382
1761140487962541000,8.694541015625,0.04406652074158191,0.0006944576707202941,0.0021242712781298903
1761140487972600300,8.704600341796874,0.041370705786347384,-0.012465057161729782,0.0032684454777278005
1761140487982659000,8.7146591796875,0.04271744422018528,-0.0032420323948375877,0.00635072986674495
1761140487992719000,8.724718994140625,0.058577276653051374,-0.013263212668942287,0.008879179765284061
1761140488002778000,8.734778076171875,0.03194412127137184,0.00010982618317939341,0.0038456060448661443
1761140488012837000,8.744837158203126,0.03807750945985317,-0.005504570499341934,0.0033497488193213938
1761140488022896000,8.754896240234375,0.04750117136538028,-0.00404938498865813,0.0069478281102143226
1761140488032955100,8.764955078125,0.05154314023256302,0.005225132503453642,0.023804398229159415
1761140488043015200,8.77501513671875,0.04929974521994591,-0.0013197225627489388,0.0037295784497633575
1761140488053074200,8.78507421875,0.03792670281231403,0.00509661988611333,0.013255860479548572
1761140488063133200,8.79513330078125,0.042865328258275985,0.0033907932157628234,0.01575451802802272
1761140488073192200,8.805192138671876,0.03164367702007294,-0.01184940034826286,-0.00837981540840119
1761140488083251200,8.815251220703125,0.041968087157607074,-0.025092584009328855,0.012921943216910585
1761140488093311000,8.82531103515625,0.03792904089987278,0.003456460596807301,0.016272048229258505
1761140488103370200,8.835370361328126,0.03927577933371067,-0.007419856935599819,0.001622185241198167
1761140488113429000,8.845428955078125,0.03882335939109325,-0.007344636274920776,0.0012651062986813485
1761140488123488300,8.85548828125,0.04046761946678162,0.0027556736500002443,0.018412622188217938
1761140488133547000,8.865547119140626,0.044208559560775754,-0.005689690408436581,0.0040990876155905425
1761140488143607000,8.87560693359375,0.050342532271146774,-0.00194401934039779,-0.0016938896373845636
1761140488153666300,8.885666259765625,0.05378478167951107,-0.011532881744997576,0.008069881809549406
1761140488163725000,8.89572509765625,0.031339141115546226,-0.010943181356694549,0.02377568359132856
1761140488173784300,8.905784423828125,0.05543371793031692,-0.004559152008546516,0.016718622952979056
1761140488183843000,8.915843017578124,0.039572131931781766,-0.014146534842113033,-0.0010996500712819397
1761140488193903000,8.925903076171876,0.04765197801291942,-0.01529985132939182,-0.012010481794644147
1761140488203962000,8.935962158203125,0.04196516454815864,-0.018301270768232642,-0.007268867624970153
1761140488214021000,8.946021240234375,0.03658113342225552,-0.017980167321395128,-0.0031575233160052447
1761140488224080100,8.956080078125,0.04466097950339317,-0.01467352699143812,-0.001255954877845943
1761140488234139100,8.96613916015625,0.04211597119569778,-0.002562772293249145,0.008194083577953279
1761140488244198100,8.9761982421875,0.046751814302802085,0.004009071244578808,0.001995521198771894
1761140488254258200,8.986258056640626,0.05079144508242607,-0.007387078044004738,0.010321021737204865
1761140488264317000,8.99631689453125,0.03717559218406677,-0.0030206355959642678,0.012085437593841925
1761140488274376200,9.006376220703125,0.046452539095282554,-0.0038750604682136324,-0.00027330051604658364
1761140488284435000,9.01643505859375,0.03358253612816334,-0.0032185967203229664,0.0006292926131747662
1761140488294494200,9.026494140625,0.047046997857093806,-0.005059584944508969,-0.005869129495415836
1761140488304554200,9.03655419921875,0.03537351119816303,-0.003714042953914031,0.005995550620369613
1761140488314613000,9.046613037109376,0.0468950221657753,-0.000020047274185344574,-0.006827051274757832
1761140488324672300,9.05667236328125,0.057818567240238185,-0.002101356193423271,-0.009259210325125604
1761140488334731000,9.06673095703125,0.044051323172450065,0.00224362334148027,0.001948394121415913
1761140488344790300,9.076790283203126,0.053178047958016395,-0.003216587426327169,0.0016253270463552326
1761140488354849000,9.08684912109375,0.05991290917098522,-0.0007530468570068478,-0.0009474003853276371
1761140488364909000,9.096908935546875,0.0383639251857996,-0.011068597834650426,-0.00687385869170539
1761140488374968000,9.106968017578126,0.03896130655705929,-0.0037275600226130334,0.012083912357036024
1761140488385027000,9.117027099609375,0.03671849606633186,-0.005010914364038035,-0.0053849627076648175
1761140488395086000,9.127086181640625,0.034924013864994045,-0.007893721525045111,0.0066374835194088514
1761140488405145000,9.13714501953125,0.044052492216229436,-0.016366110587725413,0.010626635353965684
1761140488415205000,9.147205078125,0.04554711468815803,-0.007156438492750748,-0.016938348384574056
1761140488425264000,9.15726416015625,0.049587914511561394,-0.003191096792044118,0.002032766202930361
1761140488435323100,9.1673232421875,0.04180500555038452,-0.008127731210319325,0.010265693087084218
1761140488445382100,9.177382080078125,0.05093289937973022,-0.004942041245754808,-0.0007409819598775357
1761140488455441200,9.187441162109375,0.0409083489716053,0.001963774353638291,0.0020444749070331453
1761140488465501200,9.197501220703124,0.045695583248138424,-0.008967278173845262,-0.0009219371505081653
1761140488475560200,9.207560302734375,0.04225333383977413,-0.0045230943144764744,-0.007898415966471657
1761140488485619000,9.217618896484375,0.040758711367845535,-0.0002229859677609056,0.014614389815879985
1761140488495678200,9.22767822265625,0.04061082732975483,-0.00402862532841973,0.009585729732597246
1761140488505737000,9.237737060546875,0.03687105627954006,-0.006664490257343277,0.007910544795682654
1761140488515796200,9.247796142578125,0.03836684779524803,-0.008497075979365035,0.001275289765978232
1761140488525856300,9.257856201171874,0.03746902217268944,-0.0005110182620584964,0.013037422822741791
1761140488535915300,9.267915283203125,0.040160745474696155,-0.0027282102543395013,0.006182807687623426
1761140488545974300,9.277974365234375,0.050938744598627086,-0.0032401783644687384,-0.009025812561204657
1761140488556033000,9.288032958984376,0.04749824875593185,-0.0028076504324097184,0.01767081824443303
1761140488566092300,9.29809228515625,0.042858313995599744,0.00044808169421739876,-0.0067343954220879815
1761140488576152000,9.308152099609375,0.0549772063344717,-0.008607139624562114,0.004108695694152266
1761140488586211300,9.31821142578125,0.045697336813807485,-0.0015698339994531124,0.0012594711423385887
1761140488596270000,9.32827001953125,0.035818332356214524,0.0011653357186354697,-0.01131215166640468
1761140488606329000,9.3383291015625,0.023846155011653897,-0.009593529446562752,0.0016517035966273396
1761140488616388000,9.34838818359375,0.04030746046900749,-0.00846739322715439,0.0015327533920761196
1761140488626448100,9.3584482421875,0.04464578193426132,-0.0035079807214904576,-0.0012004618309438228
1761140488636507100,9.368507080078125,0.03791092072129249,-0.009933246262324974,0.013633461620286107
1761140488646566100,9.378566162109376,0.038810499909520145,-0.008883371883211658,0.005802831926709041
1761140488656625200,9.388625244140625,0.05437339522242546,0.004169148043962195,0.019800816010450945
1761140488666684200,9.39868408203125,0.04704349072575569,0.0010606880340725182,0.00044302192660979924
1761140488676743200,9.4087431640625,0.04509937092065811,-0.008362371083255857,-0.004234778892388567
1761140488686803200,9.41880322265625,0.04808920038640499,-0.004100704183941707,0.001025041331956163
1761140488696862200,9.4288623046875,0.04749064997136593,-0.00999448406342417,-0.0015423158048652112
1761140488706921200,9.438921142578126,0.031628479450941084,0.0017908928716089576,0.009613786783302202
1761140488716980200,9.448980224609375,0.041356092739105225,-0.006185063576791435,0.007366546712629497
1761140488727039000,9.4590390625,0.05138064314723015,-0.0019051851673517375,0.015023655603360385
1761140488737099300,9.469099365234374,0.05961129587590694,-0.008681419570324943,0.004856353989988565
1761140488747158000,9.479157958984375,0.03147825732529163,-0.010878153296466917,-0.002351476763281971
1761140488757217300,9.48921728515625,0.03177694801092148,-0.01952113141939044,0.01198059811303392
1761140488767276000,9.499276123046876,0.03611468495428562,-0.008640557836974039,0.01993327415054664
1761140488777335000,9.5093349609375,0.03132394354641437,-0.012005878684762864,0.011929744708631188
1761140488787394000,9.51939404296875,0.03207096252143383,-0.014232907084468751,-0.01554196212273091
1761140488797454000,9.5294541015625,0.05317103369534015,0.00020259163370355964,-0.008660869972640648
1761140488807513300,9.539513427734375,0.037460838866233824,-0.007189573577372357,-0.0006308269831351935
1761140488817572000,9.549572021484375,0.044942134532332416,-0.019132214300194753,0.0032059929670765993
1761140488827631400,9.55963134765625,0.033120763835310936,-0.0173615970316343,0.01756270909430459
1761140488837690000,9.569690185546875,0.043592473489046095,-0.016087284513190386,-0.018341027389885856
1761140488847749000,9.5797490234375,0.041644846552610394,-0.013653125301981345,0.010991678407229482
1761140488857809200,9.58980908203125,0.04314063806831837,-0.017211849830020217,0.0015524536063894628
1761140488867867400,9.599867431640625,0.04762976618111133,0.002392941284831613,-0.004577975440025329
1761140488877926700,9.6099267578125,0.06349310574531555,0.00024351729913614688,-0.004081661556754261
1761140488887985400,9.6199853515625,0.031322774502635,-0.017369278014590962,0.001325220721773803
1761140488898044700,9.630044677734375,0.049881344500184055,-0.00968641362809576,0.005645385475829243
1761140488908104400,9.6401044921875,0.04165127629339695,0.003188594307703897,-0.0001782700431998819
1761140488918163500,9.65016357421875,0.03267185102403164,0.0026863530071452256,0.006873776493314653
1761140488928222500,9.660222412109375,0.03132628163397312,-0.0027436452854890376,0.005121799993142486
1761140488938281500,9.670281494140625,0.0346165553510189,-0.008394921645987779,0.008495870402967556
1761140488948340500,9.680340576171876,0.03267418911159038,-0.007232910395599901,0.006593224252574146
1761140488958400500,9.690400390625,0.031027006426453587,0.001958559322403744,-0.0033075993111822753
1761140488968459500,9.70045947265625,0.04045242189764976,0.0002386675940826535,0.00890807706620544
1761140488978518500,9.7105185546875,0.034466917747259136,-0.003438742277026176,0.014375512159243225
1761140488988577500,9.72057763671875,0.04553893138170242,-0.01214512275867164,0.008738711848668753
1761140488998636500,9.730636474609375,0.05107552272081375,-0.01526825061473064,0.008495651207258925
1761140489008695600,9.740695556640626,0.054067690274119375,0.001287382062571123,0.006255936855915934
1761140489018755300,9.75075537109375,0.05346738629341125,-0.003015858956146985,0.0010782145576085894
1761140489028814600,9.760814697265625,0.042541503131389616,0.0010991294814739377,0.012947817443683743
1761140489038873300,9.770873291015626,0.04268938716948032,-0.006310005130711943,-0.017228810097975656
1761140489048932600,9.7809326171875,0.051665889829397196,0.010637266345834359,-0.016870123720262198
1761140489058991400,9.790991455078125,0.0453787723839283,-0.0023889957620762286,0.017257205075398085
1761140489069050600,9.801050537109376,0.03370645476877689,0.0007943743812385947,0.004083762182295322
1761140489079110700,9.811110595703125,0.050915363723039626,0.0007371643012855202,-0.008795474404050038
1761140489089169400,9.82116943359375,0.04627835157215595,-0.0074055909482296555,0.007404768964322283
1761140489099228700,9.831228759765626,0.04163958585560321,-0.02017259933175519,0.0024019283088855445
1761140489109287400,9.841287353515625,0.043881227302551264,0.002195509883435443,-0.0002715012846048921
1761140489119346700,9.8513466796875,0.03535129936635494,-0.01538429647614248,0.003794926170399412
1761140489129406500,9.861406494140626,0.039542321315407754,-0.0031179950232151895,0.017056933262944222
1761140489139465500,9.871465576171875,0.06303717867136001,-0.003462177951540798,0.011488385016145184
1761140489149524500,9.8815244140625,0.050769233250617975,0.008320431637670845,0.017598931185156107
1761140489159583500,9.89158349609375,0.028920974057912826,-0.010046223383815958,-0.007430341796996072
1761140489169642500,9.901642578125,0.050318566873669625,0.004236221930803731,-0.011904190142266452
1761140489179701500,9.911701416015624,0.04388356539011001,-0.00691142335627228,-0.0072204436396714295
1761140489189761500,9.921761474609376,0.023535189366340636,-0.0005777359558735043,0.0015321049381047487
1761140489199820500,9.931820556640625,0.05391279197335243,-0.00835064411284402,0.0033561694269534197
1761140489209879600,9.941879638671875,0.059002808588743204,0.001332618576940149,0.017820127054629847
1761140489219938600,9.9519384765625,0.038054713106155394,-0.010011873589642345,-0.006791468504723161
1761140489229997600,9.96199755859375,0.04269347882270813,-0.004472816298808902,-0.0049809484840370715
1761140489240057300,9.972057373046875,0.03595686404407024,-0.012611406829860061,0.008826362732658162
1761140489250116600,9.98211669921875,0.03521218315660953,-0.02205964605421759,0.009768548086751252
1761140489260175400,9.99217529296875,0.043595980620384216,-0.015741567214904353,0.0052284478385467075
1761140489270234600,10.002234619140625,0.04210018910467624,-0.002938281941600144,-0.001995375068299472
1761140489280293400,10.01229345703125,0.052126493078470226,-0.011869977345410733,0.01278226988473907
1761140489290352600,10.0223525390625,0.04778700256943703,-0.013752694952627643,-0.0024097188896965234
1761140489300412400,10.032412353515625,0.05003215114772319,0.006626889060158282,-0.0020172033076174558
1761140489310471400,10.042471435546876,0.03985679409205913,0.006395902449032292,0.013785373379522934
1761140489320530400,10.052530517578125,0.04913374100327492,-0.014512500343983992,0.021409237587777897
1761140489330589400,10.06258935546875,0.03865969326198101,-0.014152288729464635,0.015068517658393829
1761140489340648400,10.0726484375,0.045692076116800304,-0.010196208047447726,-0.011812995594320818
1761140489350707500,10.08270751953125,0.04090367279648781,0.0022416231806389984,-0.014656438859319313
1761140489360767500,10.092767578125,0.041052725878357885,-0.00899204728892073,-0.014441590532241389
1761140489370826500,10.102826416015626,0.03865910874009132,-0.00601754325646907,-0.007954411336872726
1761140489380885500,10.112885498046875,0.044347091248631475,-0.0039763288856018335,0.012499872746784239
1761140489390944500,10.122944580078125,0.03447159392237663,-0.006635282429168001,0.006137333711236715
1761140489401003500,10.13300341796875,0.05691840353012085,-0.010455224309815093,0.009727668087091296
1761140489411063600,10.1430634765625,0.044646366456151006,-0.004964764534216374,0.016141581116849556
1761140489421122600,10.15312255859375,0.04030629142522812,0.0047498796745203435,0.012813139947038144
1761140489431181300,10.163181396484376,0.03776303668320179,-0.0009775671947281808,0.0036835108183324336
1761140489441240600,10.173240478515625,0.04449672885239124,-0.01268310209289193,0.01369620639188215
1761140489451299300,10.18329931640625,0.04778992517888546,-0.01585050748209469,-0.0013710874238051472
1761140489461359600,10.193359619140624,0.03057867813706398,-0.020268196060182524,0.0037044988074339926
1761140489471418600,10.203418701171875,0.05003039758205414,0.004778411649260669,0.00460241576153785
1761140489481477400,10.213477294921875,0.04120294800400734,-0.0036644590579904615,-0.0051025290370918805
1761140489491536600,10.22353662109375,0.04479425049424171,-0.007365131073677912,0.0031668026010040194
1761140489501595400,10.233595458984375,0.053773675763607025,-0.002087327668070793,0.013454999780841172
1761140489511654700,10.243654541015625,0.03417407228052616,-0.006416844772361219,0.01590262126182206
1761140489521714400,10.25371435546875,0.05737140799462795,-0.007248171896813437,0.006766114867758005
1761140489531773400,10.2637734375,0.03313186975121498,-0.006418278677621856,0.002347467308444902
1761140489541832400,10.27383251953125,0.028943185889720915,-0.003800196000561118,0.0077260459410957985
1761140489551891500,10.283891357421876,0.03732113813459873,-0.0010239088207948952,-0.001698739342438057
1761140489561950500,10.293950439453125,0.03866904561221599,-0.009253894829191266,0.019945275115594265
1761140489572009500,10.304009521484375,0.0516875171393156,0.0006707754010334611,0.004730152060743421
1761140489582069800,10.31406982421875,0.05437807139754295,-0.0020155136740300805,-0.011773439902067183
1761140489592128500,10.32412841796875,0.04360299488306045,0.004742883678153157,0.0133117371189408
1761140489602187500,10.3341875,0.034327217015624044,-0.003319390213675797,0.006104134694533422
1761140489612246500,10.34424658203125,0.054531216132640836,-0.008651608953950927,0.004140332941431552
1761140489622305500,10.354305419921875,0.05168927070498466,-0.005423623350774869,-0.0013805128392763435
1761140489632364500,10.364364501953125,0.04540566039085388,-0.024259841245925052,0.003663883669255301
1761140489642424600,10.374424560546874,0.05064239200055599,-0.019835686394432558,0.005526663600141183
1761140489652483600,10.384483642578125,0.04570318203270435,-0.02919702365347184,0.013582370753865688
1761140489662542600,10.39454248046875,0.03866904561221599,-0.008675181625783443,0.0038710784128401427
1761140489672601300,10.404601318359376,0.03732113813459873,-0.016196106049371883,0.013195627325447275
1761140489682660600,10.41466064453125,0.025501521003246305,-0.016810840414231643,-0.0009061276600230484
1761140489692720400,10.424720458984375,0.04749766423404216,-0.004082702736370266,0.014467346028005703
1761140489702779600,10.434779541015626,0.05243512063622474,-0.005107333076372743,0.0018763061327394096
1761140489712838400,10.44483837890625,0.036273090386390684,-0.0056305532328784465,-0.000381080872612074
1761140489722897400,10.4548974609375,0.04629764079451561,-0.01719161075958982,0.016413593858107922
1761140489732956400,10.464956298828126,0.045099955442547794,-0.016487097485736013,0.009359647625451908
1761140489743015400,10.475015380859375,0.054230771881341934,-0.01234561376683414,0.0031901195445097983
1761140489753075700,10.48507568359375,0.03223579769432545,-0.009640428195055574,0.022901969496719538
1761140489763134500,10.495134521484376,0.038817514172196387,-0.011904637666838244,0.006111514283390716
1761140489773193500,10.505193359375,0.03896656725406646,-0.00638701588967815,0.01669670338211581
1761140489783252500,10.51525244140625,0.0483937362909317,0.009503385211387648,0.010743366201967001
1761140489793311500,10.5253115234375,0.04779518587589263,-0.02042790753338486,0.005462439257511869
1761140489803371500,10.53537158203125,0.049888358762860296,-0.010257509780628607,0.020362130554486064
1761140489813430500,10.545430419921875,0.054524786391854284,-0.001005706443823874,-0.004669644912006333
1761140489823489500,10.555489501953126,0.05856032551825046,-0.011214947502780705,0.008699366218969225
1761140489833548500,10.565548583984375,0.05227496163845062,-0.004254515639320016,0.010681297283805907
1761140489843607600,10.575607666015625,0.047186698588728905,-0.003470680918404832,0.018756722918152807
1761140489853666600,10.58566650390625,0.03312017931342125,-0.01979894371377304,0.012993063091207294
1761140489863726600,10.5957265625,0.04254501026272774,-0.001946896284073591,0.006670591204566881
1761140489873785600,10.60578564453125,0.04972761524319649,-0.015381072472594678,0.003305398220941424
1761140489883844600,10.6158447265625,0.057956514406204224,-0.012709213781682775,-0.0014407185939140617
1761140489893903600,10.625903564453125,0.04568506185412407,-0.002675694615812972,-0.002041862824838608
1761140489903962600,10.635962646484375,0.04179389963448047,0.004920770128862932,-0.006007825580053031
1761140489914021400,10.646021484375,0.03685468966662884,-0.002951132290018722,0.0025208419808186587
1761140489924081700,10.65608154296875,0.049124973174929615,0.009909308264311403,0.006542790973279625
1761140489934140400,10.666140380859375,0.05885024837553501,0.008172301004407927,-0.012632723612524568
1761140489944199700,10.67619970703125,0.030570494830608367,-0.005206966659100726,0.018708244133926927
1761140489954258400,10.686258544921875,0.03161854257881641,-0.013695484872674569,-0.0006790865716524421
1761140489964317400,10.6963173828125,0.05616027863919735,0.0037536991108674555,0.003798670763755217
1761140489974377700,10.706377685546874,0.0411959337413311,-0.004460386075498536,0.006471360571729019
1761140489984436500,10.7164365234375,0.04448854554593563,-0.007676827371353283,-0.0034663061373867094
1761140489994495700,10.726495849609375,0.0440408017784357,-0.0034790194884873923,0.00484737609908916
1761140490004554500,10.736554443359376,0.04194353723824024,0.003759179003583267,0.014459345384640618
1761140490014613500,10.746613525390625,0.03461304821968078,-0.0015295659211464225,0.006910007717320695
1761140490024672500,10.756672607421875,0.05167407313585281,-0.009760766639094798,-0.0037326837223023174
1761140490034732500,10.766732666015624,0.0361111778229475,-0.008671318301418795,0.006773174796206876
1761140490044791600,10.77679150390625,0.027880525094270706,-0.005900392283359542,0.005174288232205435
1761140490054850600,10.7868505859375,0.03805354406237602,-0.027339595751138403,-0.0008563793673180043
1761140490064909600,10.79690966796875,0.03925239845812321,0.000015909955184906722,-0.010934605324594303
1761140490074968600,10.806968505859375,0.03072363956570625,-0.009119628324499354,-0.011966441723518073
1761140490085027600,10.817027587890625,0.042245735055208206,-0.00714125918992795,0.01427107453723438
1761140490095087600,10.827087646484374,0.0519710102558136,-0.0009244031022302806,0.018199673557281495
1761140490105146600,10.837146728515625,0.04419043938219547,-0.014862948616314679,-0.00005103606749325991
1761140490115205600,10.84720556640625,0.040898996621370316,0.0022023780156392603,0.008863370274798945
1761140490125264600,10.8572646484375,0.045237902608513826,-0.006951234776852652,0.004725731613952666
1761140490135323600,10.86732373046875,0.04733516714870929,-0.019912249628826973,-0.008066986599564552
1761140490145382700,10.877382568359375,0.04194879793524742,-0.014430420684255658,0.003287396773369983
1761140490155442400,10.8874423828125,0.04240004883408546,-0.00576123954099603,0.004649798567220568
1761140490165501700,10.897501708984375,0.04569324516057968,-0.0015416856172028928,0.0061012486177030945
1761140490175560400,10.907560546875,0.041354339173436165,-0.012625170493731274,0.015269209595955907
1761140490185619700,10.91761962890625,0.05467267042994499,-0.008722902358183637,-0.0033789201148785647
1761140490195678500,10.927678466796875,0.04673837029933929,-0.006173692799406126,0.00044120442885905504
1761140490205738500,10.937738525390625,0.04748714284002781,0.009375046123983337,0.001198680865811184
1761140490215797500,10.947797607421874,0.038061727368831635,-0.0012961224914528429,-0.006770791042875498
1761140490225856500,10.9578564453125,0.04988602067530155,-0.00021404460947960615,-0.0008541508776135742
1761140490235915500,10.96791552734375,0.048989364096522325,0.0008117639074567705,0.009689089642371982
1761140490245974500,10.977974609375,0.045697921335697174,-0.0016816146777011453,0.022056449450133367
1761140490256033500,10.988033447265625,0.05796703580021858,-0.009961431177193298,0.015357545466534792
1761140490266093600,10.998093505859375,0.04225333383977413,0.005176425390364602,0.0107664822160732
1761140490276152600,11.008152587890624,0.05362462268173694,-0.016666143847070634,0.009502526694862172
1761140490286211600,11.018211669921875,0.04719254380762577,-0.010927791991317643,-0.00374958005817607
1761140490296270600,11.0282705078125,0.03447451653182507,-0.002306285914685577,0.004525158407399431
1761140490306329600,11.03832958984375,0.04061141185164451,0.0006041581719182431,0.01563451751070097
1761140490316388600,11.048388671875,0.0331266090542078,-0.003528438987629488,-0.021168186240363866
1761140490326448400,11.058448486328125,0.04225625644922256,-0.008963761909352615,-0.0026842523816041648
1761140490336507600,11.068507568359376,0.054526539957523344,-0.005336045532021671,-0.0008113072497304528
1761140490346566400,11.07856640625,0.0340285263299942,0.0013314404000062494,0.004999114328389987
1761140490356625700,11.088625732421875,0.04225859453678131,-0.008058237037528306,0.00666292848791927
1761140490366684400,11.098684326171876,0.04659808504581451,-0.002997355185076594,0.006500312671577558
1761140490376743700,11.10874365234375,0.03971417075097561,-0.01459504579459317,-0.002454069488076493
1761140490386803700,11.1188037109375,0.031183658292889594,-0.0025601967436727135,-0.022643939615041016
1761140490396862500,11.128862548828126,0.04659633148014545,-0.008244398126238957,-0.005428217327501625
1761140490406921700,11.138921630859375,0.04360474844872951,0.003652430693479255,0.01014891657331027
1761140490416980500,11.14898046875,0.03956277958154678,-0.008525215228460729,0.014011017095251007
1761140490427039700,11.159039794921876,0.04030921403467655,0.0037375425605103373,0.0014481164490804076
1761140490437098500,11.169098388671875,0.047042906203866,-0.0015949958401732145,0.0022953991944901645
1761140490447158500,11.179158447265625,0.043452188235521313,-0.021351689581107346,0.013822782780462875
1761140490457217500,11.189217529296876,0.04853928224146366,0.0007603899132460355,0.011969263868266716
1761140490467276500,11.199276611328125,0.027588264149427413,-0.008018379951175303,-0.0008629278391133993
1761140490477335600,11.20933544921875,0.032817396974563595,-0.007070075383549556,-0.013958821117132902
1761140490487394600,11.21939453125,0.034005729976296424,0.0008596307703293859,-0.0039209545697085554
1761140490497454600,11.22945458984375,0.04671323585808277,0.0041649650591891255,0.014349647065624594
1761140490507513600,11.239513671875,0.03712883043289184,-0.015846790288202465,0.01583755666897632
1761140490517572600,11.249572509765626,0.052231122496724125,-0.013772997955139726,0.004490087094018235
1761140490527631600,11.259631591796875,0.05027706581950187,-0.003825695767998695,0.002498136958666146
1761140490537690600,11.269690673828125,0.05057341841757297,-0.0028156328094657507,-0.004217709026578814
1761140490547749600,11.27974951171875,0.051173722398281093,0.007191710735531523,0.0009873031374532729
1761140490557809700,11.2898095703125,0.03651332888305187,0.01096816966747865,-0.00719722716086544
1761140490567868400,11.299868408203125,0.04221007921993732,-0.005825655679870397,0.007054567287163809
1761140490577927700,11.309927734375,0.05224807363152504,-0.013212788522802292,0.013023768756724893
1761140490587986400,11.319986328125,0.035947511693835255,-0.014316119255358353,0.0043865901869256044
1761140490598045700,11.330045654296875,0.03729892630279064,-0.0022827223760075867,-0.007271415775083005
1761140490608104400,11.3401044921875,0.044483284848928446,0.005486934377951547,-0.013152345306146888
