time,seconds_elapsed,z,y,x
1761140479361921800,0.093921875,0.002663795603439212,0.0020055524073541164,0.00007845810614526272
1761140479371980800,0.103980712890625,0.0010712252696976066,0.00043268967419862747,0.000840654771309346
1761140479382039800,0.114039794921875,0.00095644302200526,0.001413798425346613,-0.002425445942208171
1761140479392098800,0.124098876953125,0.000030205119401216507,0.0014336341992020607,-0.0019244380528107285
1761140479402158800,0.134158935546875,-0.0010502394288778305,0.002470669336616993,-0.0015787597512826324
1761140479412217900,0.1442177734375,0.002019525272771716,-0.000025284476578235626,0.0012997580925002694
1761140479422276900,0.15427685546875,0.00021656526951119304,0.0021390668116509914,-0.00028775224927812815
1761140479432336000,0.1643359375,-0.0009246006375178695,-0.0011578947305679321,0.0009211055003106594
1761140479442395000,0.174394775390625,0.0004847440868616104,-0.0006050225347280502,0.002048155292868614
1761140479452455000,0.184454833984375,0.0006736299255862832,0.0026540635153651237,0.00007118762005120516
1761140479462514000,0.194513916015625,0.0020227874629199505,0.0004004966467618942,-0.0013759741559624672
1761140479472573000,0.204572998046875,0.0008035259670577943,-0.0017022769898176193,0.001488842535763979
1761140479482632000,0.2146318359375,0.0021399003453552723,-0.0013126563280820847,-0.000596412573941052
1761140479492690700,0.224690673828125,0.0000986483646556735,-0.001326465979218483,0.00012752751354128122
1761140479502751000,0.2347509765625,0.0003122338675893843,-0.002067090943455696,0.0004654826479963958
1761140479512809700,0.244809814453125,-0.002432079752907157,0.0007561729289591312,-0.001599564915522933
1761140479522869000,0.254868896484375,-0.00017451809253543615,-0.001023084856569767,-0.00038116873474791646
1761140479532927700,0.264927734375,0.000594270066358149,-0.0012832172214984894,0.0023190646898001432
1761140479542987800,0.27498779296875,-0.0006025545299053192,-0.0010350104421377182,0.0011781665962189436
1761140479553047000,0.285047119140625,0.001006189500913024,0.0009769275784492493,-0.00013585417764261365
1761140479563105800,0.295105712890625,-0.0002292509889230132,-0.0003120419569313526,0.002845022128894925
1761140479573165000,0.3051650390625,-0.00014709332026541233,-0.0027156618889421225,0.0007372878026217222
1761140479583223800,0.315223876953125,0.00066596973920241,0.00004576984792947769,0.004673173651099205
1761140479593283800,0.325283935546875,-0.002572237979620695,0.0001713298261165619,0.0006050816737115383
1761140479603342800,0.3353427734375,-0.000730129424482584,0.0010930499993264675,0.0003683266695588827
1761140479613401900,0.34540185546875,-0.00033890153281390667,-0.0005074385553598404,-0.000067393877543509
1761140479623460900,0.3554609375,0.0006254290929064155,-0.00016655400395393372,-0.00036220584297552705
1761140479633521000,0.36552099609375,-0.0016023105708882213,0.0010413178242743015,-0.003725849324837327
1761140479643580000,0.375579833984375,0.00020304619101807475,-0.0010828194208443165,0.0012880838476121426
1761140479653639000,0.385638916015625,-0.0006774627836421132,0.00019212672486901283,-0.002387773944064975
1761140479663698000,0.395697998046875,0.0022927606478333473,-0.0007205386646091938,-0.00029319775057956576
1761140479673757000,0.4057568359375,0.0014960140688344836,0.0011216802522540092,0.000008603325113654137
1761140479683817000,0.41581689453125,0.00003686815034598112,0.0010106265544891357,0.000989445485174656
1761140479693875700,0.425875732421875,0.00039352424209937453,-0.0018812266644090414,-0.0022866325452923775
1761140479703935000,0.43593505859375,0.0017786342650651932,0.0006216121837496758,0.003178440034389496
1761140479713993700,0.44599365234375,-0.0006383804138749838,-0.0009684199467301369,0.00013695703819394112
1761140479724053000,0.456052978515625,0.002627453999593854,0.0012108446098864079,-0.0009855653624981642
1761140479734113000,0.466113037109375,0.002570197917521,-0.0006177155300974846,0.0005582199664786458
1761140479744171800,0.476171875,-0.0003946993965655565,-0.0014446268323808908,0.0012535713613033295
1761140479754231000,0.48623095703125,0.0001431250711902976,0.0008767344988882542,-0.00020461785607039928
1761140479764289800,0.496289794921875,-4.193279892206192e-7,0.0014762119390070438,0.0009285571286454797
1761140479774349800,0.506349853515625,0.0013334950199350715,0.0017377282492816448,-0.0016305181197822094
1761140479784408800,0.516408935546875,-0.0004428334068506956,-0.002364072483032942,0.0011626053601503372
1761140479794467800,0.5264677734375,0.00048614339902997017,0.000960825476795435,0.0010736014228314161
1761140479804526800,0.53652685546875,0.0004760234151035547,-0.0010317517444491386,-0.00034772761864587665
1761140479814585900,0.5465859375,-0.0008924412541091442,-0.0006177788600325584,0.0004627810849342495
1761140479824645600,0.556645751953125,0.0002676317235454917,0.000002737622708082199,-0.003415846498683095
1761140479834705000,0.566704833984375,0.001391550526022911,0.0004921997897326946,0.002023387933149934
1761140479844763600,0.576763671875,0.0013023345964029431,-0.0004705325700342655,0.000554121914319694
1761140479854823200,0.5868232421875,-0.0014389206189662218,-0.0008388534188270569,0.001045432174578309
1761140479864883000,0.596883056640625,0.0000034474069252610207,-0.0004777288995683193,0.0014750000555068254
1761140479874942000,0.60694189453125,0.000936283846385777,0.0008401256054639816,0.0004879179468844086
1761140479885001000,0.6170009765625,0.0007155077764764428,0.0002848566509783268,0.000942785874940455
1761140479895060000,0.62706005859375,0.00015038345009088516,-0.0003662537783384323,0.0004562752437777817
1761140479905119000,0.637118896484375,-0.002188937272876501,-0.002063486259430647,-0.000640680780634284
1761140479915179000,0.647178955078125,0.00117929105181247,-0.0010328935459256172,-0.00042311055585741997
1761140479925238000,0.657238037109375,-0.000903300940990448,0.001871283631771803,-0.0022692137863487005
1761140479935297000,0.667297119140625,0.0008120432030409575,-0.0012742094695568085,0.0031880864407867193
1761140479945356000,0.67735595703125,-0.00023404648527503014,0.0007679020054638386,-0.000021022686269134283
1761140479955416000,0.687416015625,0.003625344019383192,-0.0010819360613822937,0.0010220936965197325
1761140479965475000,0.69747509765625,-0.0014335968298837543,0.00301879970356822,0.0018532662652432919
1761140479975534000,0.7075341796875,0.0007360067684203386,0.00008418643847107887,-0.0002903271233662963
1761140479985593000,0.717593017578125,0.003406891133636236,-0.00015603099018335342,0.0007150161545723677
1761140479995651800,0.72765185546875,-0.0009130708058364689,0.0002208910882472992,0.00013017124729231
1761140480005712100,0.737712158203125,-0.0020984436850994825,0.00012075621634721756,-0.0006884845206514001
1761140480015771000,0.74777099609375,0.001235896022990346,-0.003012444358319044,-0.0005459609092213213
1761140480025830100,0.757830078125,-0.0000022075255401432514,0.001516793854534626,0.00042236445005983114
1761140480035889000,0.767888916015625,0.00035586091689765453,0.0009026867337524891,0.0007464321097359061
1761140480045948000,0.777947998046875,0.0007079308270476758,0.00000227196142077446,0.0009855839889496565
1761140480056008200,0.78800830078125,-0.0003599360352382064,0.0011762338690459728,-0.0005174108664505184
1761140480066067000,0.79806689453125,-0.0002531432546675205,0.0015458804555237293,0.0009100434836000204
1761140480076126200,0.808126220703125,-0.00019547960255295038,-0.002329533686861396,-0.00025885680224746466
1761140480086185000,0.81818505859375,-0.0029862062074244022,0.0013642706908285618,-0.0014029508456587791
1761140480096245000,0.828244873046875,0.00031518074683845043,0.00045202113687992096,-0.0001061001094058156
1761140480106304000,0.838303955078125,0.001349286176264286,0.0013175485655665398,0.0021128456573933363
1761140480116363000,0.848363037109375,0.0012062048772349954,0.00114536564797163,-0.0014790736604481936
1761140480126422000,0.858422119140625,-0.000761604867875576,-0.0005412143655121326,0.0010487990221008658
1761140480136481000,0.86848095703125,-0.0013022245839238167,0.0001786048524081707,0.0008980148704722524
1761140480146541000,0.878541015625,0.000013110518921166658,0.0023826370015740395,0.0012695258483290672
1761140480156600000,0.88860009765625,-0.0012370049953460693,-0.00020859483629465103,0.0010701239807531238
1761140480166659000,0.8986591796875,0.0010610368335619569,0.0015048827044665813,0.00015612709103152156
1761140480176718000,0.908718017578125,-0.0036826583091169596,-0.002284873742610216,-0.0007160741370171309
1761140480186778000,0.918778076171875,-0.000604576722253114,-0.000168725848197937,-0.0007381783798336983
1761140480196836900,0.9288369140625,0.0007264030864462256,-0.0012986129149794579,-0.0027801867108792067
1761140480206896000,0.938896240234375,0.00045502695138566196,-0.0007073911838233471,0.0005711353151127696
1761140480216955000,0.948954833984375,0.0001932382001541555,0.00040474487468600273,0.00027419283287599683
1761140480227014100,0.95901416015625,-0.001303990837186575,0.003405860625207424,-0.00011516129598021507
1761140480237074200,0.96907421875,0.0014280157629400492,-0.00043992698192596436,0.0007150050369091332
1761140480247133000,0.9791328125,-0.000007960654329508543,0.0014242855831980705,0.00005267688538879156
1761140480257192200,0.989192138671875,0.0009437224944122136,0.0011671087704598904,0.002326277084648609
1761140480267251000,0.9992509765625,0.0015677011106163263,-0.0001255897805094719,0.0014873812906444073
1761140480277310200,1.009310302734375,-0.00038453569868579507,-0.0009426646865904331,-0.0008159474236890674
1761140480287370000,1.019369873046875,0.0007278666598722339,-0.0008361386135220528,0.0013385498896241188
1761140480297429000,1.029428955078125,0.0015255494508892298,0.0006104325875639915,0.0008423488470725715
1761140480307488000,1.039488037109375,0.0005814587930217385,0.0001323949545621872,0.0017531499033793807
1761140480317547000,1.049547119140625,0.00039613002445548773,0.002166281919926405,0.002304184017702937
1761140480327607000,1.05960693359375,0.0011468750890344381,-0.0008766460232436657,-0.0009075882262550294
1761140480337666000,1.069666015625,0.000007646216545253992,-0.0005580219440162182,-0.0008776962058618665
1761140480347724800,1.079724853515625,0.0014263121411204338,-0.0008397842757403851,0.0029564567375928164
1761140480357784000,1.0897841796875,-0.0035488028079271317,-0.00041954265907406807,-0.0009957171278074384
1761140480367842800,1.0998427734375,0.0004376830183900893,0.0006502489559352398,0.0005116320680826902
1761140480377903000,1.109903076171875,-0.0020306066144257784,0.001248315442353487,-0.0023377006873488426
1761140480387962000,1.119962158203125,0.0012943500187247992,0.001203041523694992,0.00039337101043201983
1761140480398020900,1.130020751953125,0.0005323516670614481,-0.0024712304584681988,0.0004864187503699213
1761140480408080100,1.140080078125,-0.0015206790994852781,-0.00011166976764798164,-0.0006291794124990702
1761140480418140000,1.150139892578125,-0.00026486138813197613,-0.0015182998031377792,-0.00026484846603125334
1761140480428199200,1.16019921875,-0.0009210641728714108,0.0014239605516195297,0.0004922882653772831
1761140480438258000,1.1702578125,-0.0006156659219413996,0.00048285815864801407,-0.00043283950071781874
1761140480448317000,1.18031689453125,0.0008450779714621603,0.0014823423698544502,0.002063341438770294
1761140480458376000,1.1903759765625,-0.0001356275170110166,0.0015717260539531708,-0.0005693802377209067
1761140480468436000,1.20043603515625,0.00034374144161120057,0.000040675047785043716,0.00048762845108285546
1761140480478495200,1.2104951171875,-0.0021534201223403215,0.00116319814696908,0.0032553726341575384
1761140480488554000,1.220553955078125,0.0013835241552442312,0.0012159286998212337,-0.0009146048687398434
1761140480498613000,1.230613037109375,0.0031873155385255814,0.0005699018947780132,0.0012333254562690854
1761140480508672000,1.240672119140625,0.0011124468874186277,0.0009848223999142647,0.0007598154479637742
1761140480518732000,1.25073193359375,-0.0016693477518856525,0.0010863235220313072,0.00013098143972456455
1761140480528791000,1.260791015625,-0.0003979547182098031,0.0005875136703252792,-0.0005928657483309507
1761140480538850000,1.27085009765625,-0.0018274319591000676,0.002227479126304388,0.0009399813716299832
1761140480548909000,1.280908935546875,0.0011505148140713573,-0.0008221068419516087,0.000264071102719754
1761140480558969000,1.290968994140625,0.0013469374971464276,0.001287559513002634,-0.000538951950147748
1761140480569028000,1.301028076171875,-0.0015207543037831783,0.0014132605865597725,0.0012419038685038686
1761140480579087000,1.311087158203125,0.0015568658709526062,-0.0014370325952768326,0.00028889894019812346
1761140480589146000,1.32114599609375,0.0020876338239759207,-0.0023957707453519106,-0.0007143138209357858
1761140480599205000,1.331205078125,-0.0014860020019114017,-0.0012509473599493504,-0.0002893892233259976
1761140480609265200,1.34126513671875,0.00012094952398911119,-0.0013926276005804539,-0.0004936537588946521
1761140480619324000,1.351323974609375,-0.000951744441408664,-0.00030909106135368347,0.0006486334605142474
1761140480629383200,1.361383056640625,0.0018134156707674265,0.001462710089981556,0.0012819331604987383
1761140480639442000,1.37144189453125,0.00006312120240181684,-0.0008895895443856716,0.0013609551824629307
1761140480649502000,1.381501953125,-0.0004668477922677994,0.0016974047757685184,-0.0019211245235055685
1761140480659561000,1.39156103515625,-0.0009414894739165902,0.0008180486038327217,-0.0008978027617558837
1761140480669620000,1.401619873046875,-0.0004160478711128235,-0.0004413602873682976,-0.0025396416895091534
1761140480679679000,1.411678955078125,-0.002382611855864525,0.0010643107816576958,-0.002663621911779046
1761140480689738000,1.421738037109375,0.0003692324389703572,-0.002604193752631545,0.0022571010049432516
1761140480699798000,1.431798095703125,0.0014186585322022438,0.0013477508910000324,0.0009943487821146846
1761140480709857000,1.44185693359375,-0.0008998894481919706,0.0008470769971609116,-0.002779616741463542
1761140480719916000,1.451916015625,-0.00068097491748631,0.0008280887268483639,-0.0029774245340377092
1761140480729975000,1.46197509765625,-0.00025806494522839785,0.00009864894673228264,-0.0013931100256741047
1761140480740034000,1.472033935546875,-0.0011875696945935488,-0.00016856659203767776,0.0012082444736734033
1761140480750093800,1.48209375,-0.0005334971356205642,-0.0020865751430392265,0.00150811648927629
1761140480760153000,1.492153076171875,0.001646657707169652,-0.0016556186601519585,0.0020133694633841515
1761140480770211800,1.5022119140625,-0.0016774998512119055,-0.0012604058720171452,-0.00014672038378193974
1761140480780271000,1.51227099609375,0.00048111029900610447,-0.002743589924648404,0.004320479463785887
1761140480790329900,1.522329833984375,-0.00027895584935322404,0.0002934788353741169,0.0017180382274091244
1761140480800390000,1.532389892578125,-0.00250679487362504,0.0011966205202043056,0.00004804064519703388
1761140480810449200,1.54244921875,-0.00039597356226295233,-0.0005469508469104767,0.00044591689947992563
1761140480820508000,1.5525078125,0.0004630224430002272,0.001204201951622963,-0.0013804102782160044
1761140480830567200,1.562567138671875,-0.0027189224492758512,-0.0006096768192946911,-0.002277629217132926
1761140480840627000,1.572626953125,-0.0014465355779975653,-0.0014869756996631622,-0.001012027612887323
1761140480850686000,1.58268603515625,-0.0006166945677250624,-0.00020413100719451904,0.0002335328608751297
1761140480860744400,1.592744384765625,0.0009979949099943042,-0.0003470941446721554,0.0006776348454877734
1761140480870803700,1.6028037109375,0.001518642995506525,-0.00021020742133259773,-0.003025490790605545
1761140480880862500,1.612862548828125,0.001289362320676446,-0.0005392022430896759,-0.0004754725960083306
1761140480890922500,1.622922607421875,0.0018566157668828964,-0.0006427988409996033,0.0020358883775770664
1761140480900981500,1.6329814453125,-0.0006242964882403612,-0.0012984317727386951,0.001757435267791152
1761140480911040500,1.64304052734375,0.000048684305511415005,-0.0028878063894808292,0.0010010976111516356
1761140480921099500,1.653099609375,0.0023619942367076874,0.0004711216315627098,-0.002137863775715232
1761140480931158500,1.663158447265625,-0.0006633566226810217,0.0004495498724281788,0.0006155783776193857
1761140480941218300,1.67321826171875,-0.0027944641187787056,-0.000177738256752491,0.00046747573651373386
1761140480951277600,1.683277587890625,-0.0003337033558636904,-0.0018653832376003265,-0.0017360236961394548
1761140480961336300,1.69333642578125,-0.0002618189319036901,-0.000886574387550354,-0.0012870923383161426
1761140480971395600,1.7033955078125,-0.0006410531350411475,-0.0012977663427591324,0.001181125408038497
1761140480981455600,1.71345556640625,0.0010741831501945853,0.00021132640540599823,0.00022907211678102612
1761140480991514400,1.723514404296875,0.00020066631259396672,-0.0006914851255714893,0.0009174992446787655
1761140481001573600,1.73357373046875,-0.0003783019492402673,-0.00015628430992364883,-0.00011388526763767004
1761140481011632400,1.74363232421875,0.0002611230011098087,0.00036303186789155006,-0.000051833572797477245
1761140481021691600,1.753691650390625,-0.0009359858231619,-0.0015657495241612196,0.001616253168322146
1761140481031751400,1.76375146484375,0.0011410134611651301,0.0005559907294809818,-0.0004788556252606213
1761140481041810400,1.773810546875,-0.0010325489565730095,-0.0018320735543966293,-0.002756945788860321
1761140481051869400,1.783869384765625,-0.0016173790208995342,-0.0021079769358038902,-0.000030401453841477633
1761140481061928400,1.793928466796875,-0.0004003922804258764,0.0003916756249964237,0.00008641381282359362
1761140481071987500,1.803987548828125,-0.000982292927801609,0.003365627955645323,0.0005809628637507558
1761140481082047500,1.814047607421875,-0.0005458492669276893,0.0001480686478316784,-0.0007693281513638794
1761140481092106500,1.8241064453125,0.00101982313208282,0.0009640613570809364,-0.0004635971854440868
1761140481102165500,1.83416552734375,0.00119238649494946,0.0034462553448975086,0.0007613436901010573
1761140481112224500,1.844224609375,-0.0001266772160306573,0.0021548885852098465,-0.0003718313528224826
1761140481122284300,1.8542841796875,-0.003038594266399741,0.003832490649074316,-0.001324517885223031
1761140481132343600,1.864343505859375,-0.0005695776781067252,0.0009629344567656517,0.0014009613078087568
1761140481142402300,1.87440234375,0.0019282270222902298,0.0009135454893112183,-0.0006122661870904267
1761140481152461600,1.884461669921875,-0.0022225757129490376,0.0032470067963004112,0.001609342754818499
1761140481162520300,1.894520263671875,-0.001223543775267899,0.002702255267649889,0.001645872020162642
1761140481172580600,1.90458056640625,-0.00037852278910577297,0.004540369380265474,-0.00019437226001173258
1761140481182639600,1.9146396484375,0.0004569297598209232,0.0024691158905625343,0.00017979962285608053
1761140481192698400,1.924698486328125,-0.000055462413001805544,0.00461216177791357,0.0018458731938153505
1761140481202757600,1.934757568359375,-0.000780642731115222,0.0021394165232777596,0.003613930195569992
1761140481212816400,1.94481640625,0.0009120624745264649,-0.0016776924021542072,-0.000020751962438225746
1761140481222876700,1.954876708984375,0.0005650554085150361,-0.00032718852162361145,0.0009212754666805267
1761140481232935400,1.964935302734375,-0.0008568062912672758,0.0017647244967520237,-0.0016193800838664174
1761140481242994400,1.974994384765625,0.0007777524297125638,0.0002387017011642456,-0.0009205174865201116
1761140481253053400,1.985053466796875,-0.0014712871052324772,0.00004056282341480255,-0.0033759516663849354
1761140481263113500,1.995113525390625,-0.0005236261058598757,-0.0019615432247519493,-0.0016705803573131561
1761140481273172500,2.00517236328125,-0.0001486530527472496,0.0018358579836785793,0.0010778019204735756
1761140481283231500,2.0152314453125,-0.0008155603427439928,-0.0022668172605335712,0.0011405659606680274
1761140481293290500,2.02529052734375,-0.00158042018301785,0.0012786490842700005,-0.0002575936377979815
1761140481303349500,2.035349609375,-0.0015306004788726568,0.0015794611535966396,-0.0016366455238312483
1761140481313409500,2.045409423828125,-0.0005191318923607469,-0.000410452950745821,-0.00027017766842618585
1761140481323468500,2.055468505859375,-0.0012215920723974705,-0.0017930141184478998,-0.0017396050971001387
1761140481333527600,2.065527587890625,0.0000793621875345707,-0.0011392082087695599,-0.002333223819732666
1761140481343586600,2.075586669921875,-0.0016438693273812532,-0.002381486352533102,0.0015113366534933448
1761140481353645600,2.0856455078125,-0.00007659901166334748,-0.0017876012716442347,-0.0012149412650614977
1761140481363705300,2.095705322265625,0.0006294306367635727,-0.00290640234015882,0.001713064033538103
1761140481373764600,2.1057646484375,0.0018387720920145512,-0.005169822834432125,-0.0002957583055831492
1761140481383823400,2.1158232421875,0.00027439132099971175,-0.0037562758661806583,0.00026906724087893963
1761140481393882600,2.125882568359375,-0.0024036834947764874,0.0006920020096004009,-0.0015346917789429426
1761140481403941400,2.13594140625,0.00002037448575720191,-0.0027451321948319674,-0.0029606225434690714
1761140481414001400,2.14600146484375,0.00015859253471717238,0.0009241714142262936,-0.00012195907765999436
1761140481424060700,2.156060791015625,-0.0008070362964645028,0.0024846401065587997,-0.0006063973414711654
1761140481434119400,2.166119384765625,-0.0010917282197624445,0.0007538516074419022,-0.000932634633500129
1761140481444178700,2.1761787109375,-0.0006043411558493972,-0.0013950583525002003,0.00017333892174065113
1761140481454238500,2.186238525390625,0.0019645439460873604,-0.0018994610290974379,0.0002961106365546584
1761140481464297500,2.19629736328125,0.0012109357630833983,-0.004638314712792635,0.001642816700041294
1761140481474356500,2.2063564453125,0.0010149270528927445,-0.0010784673504531384,0.0012300267117097974
1761140481484415500,2.21641552734375,0.0002863524714484811,0.00009219953790307045,0.0005058587994426489
1761140481494474500,2.226474609375,0.0005294990260154009,-0.0019352647941559553,0.0013713862281292677
1761140481504534500,2.236534423828125,0.0013281453866511583,0.0005863332189619541,-0.0025441846810281277
1761140481514593500,2.246593505859375,-0.002678314223885536,0.0010625068098306656,0.0016465657390654087
1761140481524652500,2.256652587890625,-0.00023653334937989712,-0.00003207894042134285,-0.0005090335034765303
1761140481534711600,2.266711669921875,0.001186393667012453,0.0019610305316746235,-0.002600147621706128
1761140481544770600,2.2767705078125,-0.0006827363977208734,-0.0004739607684314251,0.0012265321565791965
1761140481554830600,2.28683056640625,0.00022247206652536988,0.0018336684443056583,0.0012441090075299144
1761140481564889300,2.296889404296875,-0.001462777378037572,0.002299752552062273,0.00034320991835556924
1761140481574948600,2.306948486328125,0.0011513815261423588,-0.000615876168012619,-0.002729545347392559
1761140481585007400,2.31700732421875,-0.00009494076948612928,-0.0014922255650162697,-0.0011986609315499663
1761140481595067400,2.3270673828125,-0.000018241815268993378,-0.000911390408873558,-0.002296416088938713
1761140481605126400,2.33712646484375,-0.00036935461685061455,0.00009681796655058861,-0.0013668022584170103
1761140481615185400,2.347185302734375,0.00029989780159667134,0.000024646054953336716,-0.002559099579229951
1761140481625244400,2.357244384765625,-0.0004252686630934477,0.0011634677648544312,-0.000010730524081736803
1761140481635303400,2.367303466796875,0.0005800747312605381,-0.0025511090643703938,0.0009711769525893033
1761140481645363500,2.377363525390625,0.001906828605569899,-0.0016868766397237778,-0.0005771860014647245
1761140481655422500,2.38742236328125,0.000960607489105314,-0.002482096664607525,-0.0011076877126470208
1761140481665481500,2.3974814453125,0.000052579271141439676,-0.0013582794927060604,0.0005532633513212204
1761140481675540500,2.40754052734375,-0.0010928462725132704,0.0006342977285385132,-0.0002099985722452402
1761140481685599500,2.417599609375,0.0025406712666153908,-0.003786896588280797,-0.0029927834402769804
1761140481695659500,2.427659423828125,0.0013012361014261842,-0.0001969556324183941,0.0009625433594919741
1761140481705718500,2.437718505859375,-0.00017525022849440575,-0.001640362199395895,-0.0001810261164791882
1761140481715777300,2.44777734375,-0.001536125666461885,-0.0010360907763242722,0.0005060694529674947
1761140481725836500,2.45783642578125,-0.00041138811502605677,-0.002120432909578085,-0.0008567673503421247
1761140481735895300,2.467895263671875,0.003990816883742809,-0.00033451709896326065,0.0011965298326686025
1761140481745955600,2.47795556640625,0.0017729946412146091,-0.0018967022188007832,0.0022133118472993374
1761140481756014600,2.4880146484375,0.0025003040209412575,-0.0010146633721888065,-0.0008168326457962394
1761140481766073300,2.4980732421875,0.0010176848154515028,-0.0002894843928515911,-0.0017877647187560797
1761140481776132600,2.508132568359375,0.0016834749840199947,-0.0005334299057722092,-0.00027109432267025113
1761140481786192400,2.5181923828125,0.0014952963683754206,-0.0015911480877548456,-0.0011374653549864888
1761140481796251600,2.528251708984375,0.0012153980787843466,-0.0014316248707473278,0.00008279504254460335
1761140481806310400,2.538310302734375,-0.001542088109999895,0.0004965425468981266,0.0007192319026216865
1761140481816369400,2.548369384765625,-0.0007407430093735456,0.0009026746265590191,-0.0020352755673229694
1761140481826428400,2.558428466796875,0.0010322363814339042,-0.0017045901622623205,-0.0000820583663880825
1761140481836488400,2.568488525390625,0.001997898565605283,0.0001297951675951481,0.00045270437840372324
1761140481846547700,2.578547607421875,0.001426549395546317,-0.0022529570851475,-0.0009235473116859794
1761140481856606700,2.588606689453125,-0.0014824215322732925,-0.0005171084776520729,-0.0007706817705184221
1761140481866665700,2.598665771484375,0.001220733392983675,-0.0036546271294355392,0.0013863521162420511
1761140481876724700,2.608724853515625,0.0005070061888545752,-0.0003083650954067707,-0.0005609511281363666
1761140481886784800,2.61878466796875,0.0015519626904278994,-0.0013143843971192837,0.003447858616709709
1761140481896843800,2.62884375,0.002015086356550455,-0.0023546149022877216,-0.0005354313179850578
1761140481906902800,2.63890283203125,0.0028433266561478376,0.00020208396017551422,0.0012934590922668576
1761140481916961800,2.6489619140625,0.0001567297731526196,-0.0002197609283030033,0.0020127790048718452
1761140481927020800,2.659020751953125,0.0006633928278461099,0.001000522170215845,-0.0023080329410731792
1761140481937080800,2.669080810546875,0.00004447420360520482,0.00010277051478624344,-0.0015218680491670966
1761140481947139800,2.679139892578125,-0.00014557340182363987,-0.00304086459800601,-0.001775435172021389
1761140481957198800,2.68919873046875,-0.0008635616395622492,-0.0016490966081619263,0.0019061188213527203
1761140481967257900,2.6992578125,0.0003589618718251586,-0.0006007272750139236,0.00008041301043704152
1761140481977318000,2.70931787109375,-0.0005971129285171628,-0.00047049904242157936,0.001131562632508576
1761140481987376600,2.719376708984375,-0.0013143045362085104,-0.0015205200761556625,-0.00040285359136760235
1761140481997436000,2.729435791015625,0.0007333999965339899,0.0014371867291629314,0.0008264615316875279
1761140482007494700,2.73949462890625,0.0005106254247948527,-0.00008815573528409004,0.0008896212675608695
1761140482017554000,2.749553955078125,-0.00016208912711590528,-0.0003424878232181072,-0.0007247869507409632
1761140482027614000,2.759614013671875,-0.0027107782661914825,0.0023462381213903427,-0.00017271185060963035
1761140482037672700,2.769672607421875,-0.0005858421791344881,0.0011227820068597794,-0.0012896417174488306
1761140482047732000,2.77973193359375,-0.0003525457577779889,0.0012880410067737103,-0.0011135332752019167
1761140482057790700,2.789790771484375,-0.0013981027295812964,0.0034308210015296936,0.00006651337025687099
1761140482067850000,2.79985009765625,-0.002133871428668499,0.002382398582994938,-0.0007735754479654133
1761140482077909800,2.80990966796875,-0.000060334219597280025,-0.00010153185576200485,0.0022427209187299013
1761140482087968800,2.81996875,-0.000647692708298564,-0.0011379481293261051,-0.001448360038921237
1761140482098027800,2.83002783203125,0.0009094575070776045,-0.0013523325324058533,-0.00014660687884315848
1761140482108086800,2.840086669921875,0.0014961515553295612,-0.0022559799253940582,-0.0007575299241580069
1761140482118145800,2.850145751953125,0.0015811064513400197,0.0014713802374899387,0.0010558165377005935
1761140482128205800,2.860205810546875,-0.0001891318242996931,0.0013607568107545376,0.0017071893671527505
1761140482138264800,2.870264892578125,-0.001795017858967185,0.0002257176674902439,-0.0006875250837765634
1761140482148323800,2.88032373046875,0.00007711979560554028,-0.0025644784327596426,0.0008930190233513713
1761140482158382800,2.8903828125,0.0010624893475323915,-0.001782574225217104,-0.0018100894521921873
1761140482168442600,2.900442626953125,0.0015222334768623114,0.00006128940731287003,0.0011984904995188117
1761140482178502000,2.910501953125,0.0000870560179464519,0.00035876454785466194,-0.00017570058116689324
1761140482188560600,2.920560546875,-0.0010254016378894448,-0.0012160297483205795,-0.0005960072739981115
1761140482198620000,2.930619873046875,0.002083306200802326,-0.003069057362154126,0.0004016128077637404
1761140482208678700,2.9406787109375,-0.0014229123480618,-0.0004932289011776447,0.0013249057810753584
1761140482218738700,2.95073876953125,-0.000003713823389261961,0.0008575264364480972,0.001088150660507381
1761140482228797700,2.960797607421875,-0.00012182065984234214,-0.0003345073200762272,0.000703019613865763
1761140482238856700,2.970856689453125,-0.00039932207437232137,-0.0005765887908637524,-0.0006799599505029619
1761140482248915700,2.980915771484375,0.0006074116099625826,0.002294063102453947,-0.001475598430261016
1761140482258974700,2.990974609375,-0.00150687200948596,0.0009768633171916008,0.0013817071449011564
1761140482269034800,3.00103466796875,0.0005566691979765892,-0.0014544147998094559,0.000331076851580292
1761140482279093800,3.01109375,-0.00024121382739394903,-0.00244111567735672,0.0011153777595609426
1761140482289152800,3.02115283203125,0.0013424414210021496,0.0016026305966079235,0.0017615577671676874
1761140482299211800,3.031211669921875,0.0004521466325968504,-0.0013537444174289703,-0.0022486301604658365
1761140482309270800,3.041270751953125,0.0005655314889736474,-0.0009668893180787563,-0.0004906310932710767
1761140482319330800,3.051330810546875,0.0010590152814984322,0.0002786708064377308,0.00214163726195693
1761140482329389800,3.061389892578125,-0.0001002613571472466,-0.0011617685668170452,0.001235993579030037
1761140482339448600,3.071448486328125,0.0013695372035726905,-0.0019790928345173597,0.003264789702370763
1761140482349507800,3.0815078125,0.00024948822101578116,-0.001554184127599001,-0.0010859358590096235
1761140482359566600,3.091566650390625,0.0009437742992304265,0.0008772821165621281,-0.002926180139183998
1761140482369627000,3.101626953125,-0.00034826452611014247,-0.001307773869484663,-0.0008201446617022157
1761140482379686000,3.111685791015625,0.0012994331773370504,-0.0011514462530612946,-0.0027525341138243675
1761140482389744600,3.12174462890625,-0.0016297760885208845,0.0014477772638201714,-0.0003179178456775844
1761140482399804000,3.131803955078125,0.0008954333025030792,-0.0025711990892887115,0.0015204622177407146
1761140482409863700,3.14186376953125,0.0007530195289291441,0.0001984601840376854,-0.0026814795564860106
1761140482419923000,3.1519228515625,-0.0015426252502948046,-0.00012271711602807045,0.0011678534792736173
1761140482429981700,3.161981689453125,0.00004521891241893172,0.00003226660192012787,0.00037886505015194416
1761140482440040700,3.172040771484375,0.0006308479933068156,-0.0025541954673826694,-0.0027117333374917507
1761140482450099700,3.182099609375,0.002828421304002404,-0.0005399580113589764,0.00041358888847753406
1761140482460159700,3.19215966796875,0.0005466249422170222,-0.0021120216697454453,0.002404035534709692
1761140482470219000,3.202218994140625,0.001239644712768495,-0.001132005825638771,0.001204541651532054
1761140482480277800,3.21227783203125,0.0012359162792563438,-0.00018898071721196175,-0.003223496489226818
1761140482490336800,3.222336669921875,0.0008855274063535035,-0.00044726068153977394,-0.0004714764654636383
1761140482500395800,3.232395751953125,0.000539050146471709,-0.0007082503288984299,0.0011338770855218172
1761140482510455800,3.242455810546875,-0.0016852703411132097,0.0010065780952572823,-0.0017657526768743992
1761140482520514800,3.252514892578125,-0.0017268157098442316,0.0025956863537430763,0.0013184540439397097
1761140482530573800,3.26257373046875,-0.002131421584635973,0.002715327311307192,0.0007278668927028775
1761140482540632800,3.2726328125,0.0012705003609880805,0.0003405865281820297,0.0009065649937838316
1761140482550691800,3.28269189453125,-0.0015317113138735294,0.0007286565378308296,-0.0006450021755881608
1761140482560751600,3.292751708984375,0.0007711239741183817,-0.0016183874104171991,-0.0015693854074925184
1761140482570811000,3.302810791015625,0.0015582360792905092,-0.0014457658398896456,-0.000230701407417655
1761140482580869600,3.31286962890625,0.0008431773167103529,-0.00010353280231356621,-0.0007271146168932319
1761140482590929000,3.322928955078125,-0.0003363071009516716,-0.00010577449575066566,0.00029781635385006666
1761140482600987600,3.332987548828125,0.0003236242337152362,0.0007016956806182861,0.0007177968509495258
1761140482611047700,3.343047607421875,0.0021453832741826773,-0.0012977197766304016,0.0016007334925234318
1761140482621107000,3.35310693359375,0.002171482192352414,-0.0008905227296054363,0.0006169617408886552
1761140482631165700,3.363165771484375,-0.002442040480673313,0.0003972467966377735,-0.0000016319681890308857
1761140482641225000,3.373224853515625,-0.002733656670898199,-0.0006262059323489666,0.0011389999417588115
1761140482651284700,3.38328466796875,-0.0015386489685624838,-0.00188876548781991,0.0013794794213026762
1761140482661343700,3.39334375,0.0012371637858450413,0.001577605027705431,-0.000030398136004805565
1761140482671402800,3.40340283203125,-0.00010181230027228594,0.00041640549898147583,-0.00052483263425529
1761140482681461800,3.413461669921875,-0.0016227435553446412,-0.0006720284000039101,-0.0014753148425370455
1761140482691520800,3.423520751953125,0.0014424638357013464,-0.00041570328176021576,0.0007133213221095502
1761140482701580800,3.433580810546875,-0.0018593233544379473,0.0007177381776273251,-0.00022517662728205323
1761140482711639800,3.443639892578125,0.0014679491287097335,-0.0018017557449638844,0.0019459578907117248
1761140482721698800,3.45369873046875,0.0005507564637809992,0.00043023983016610146,-0.0003845744067803025
1761140482731757800,3.4637578125,0.0021907631307840347,-0.00009168870747089386,0.00030563800828531384
1761140482741816800,3.47381689453125,-0.0017182247247546911,-0.0008365749381482601,0.0021256422623991966
1761140482751876900,3.483876953125,-0.0023429319262504578,0.0008075679652392864,0.0007692590006627142
1761140482761935600,3.493935546875,0.0001327424542978406,-0.001214836724102497,-0.0011817726772278547
1761140482771995000,3.503994873046875,0.0006518263835459948,0.00013655470684170723,0.00023655424593016505
1761140482782053600,3.5140537109375,-0.0008323532529175282,0.0035659074783325195,0.00021578161977231503
1761140482792113000,3.52411279296875,0.0011549722403287888,0.0006828741170465946,-0.0006816019304096699
1761140482802172700,3.534172607421875,-0.0014013960026204586,-0.002192008076235652,0.00004597374936565757
1761140482812231700,3.544231689453125,0.00046720486716367304,-0.0015277916099876165,0.002106207422912121
1761140482822290700,3.554290771484375,0.001010223408229649,-0.0012593450956046581,0.0007911385037004948
1761140482832349700,3.564349609375,-0.001406801282428205,-0.00045545632019639015,-0.002358495257794857
1761140482842409000,3.574408935546875,-0.00294610857963562,0.0008058170787990093,0.0013289174530655146
1761140482852468700,3.58446875,0.0006463020108640194,-0.002238771878182888,-0.0006242642994038761
1761140482862527700,3.59452783203125,0.002608252689242363,-0.0007814900018274784,0.0025848448276519775
1761140482872587000,3.6045869140625,-0.0012886840850114822,0.0005510365590453148,-0.00008075346704572439
1761140482882645800,3.614645751953125,-0.0005709620309062302,-0.0032452994491904974,0.0005293767317198217
1761140482892705800,3.624705810546875,0.0007364501943811774,0.0014237519353628159,-0.0009586763335391879
1761140482902764800,3.634764892578125,0.0002552170190028846,0.0009302683174610138,0.0013590727467089891
1761140482912823800,3.64482373046875,0.0011502045672386885,-0.002623469801619649,0.0004108683206140995
1761140482922882800,3.6548828125,-0.0006434344104491174,-0.0013025421649217606,0.001813555252738297
1761140482932941800,3.66494189453125,-0.0002624175976961851,0.0014113192446529865,0.00001429958501830697
1761140482943001900,3.675001953125,-0.00023259012959897518,0.00038200756534934044,-0.0001779806916601956
1761140482953060900,3.685060791015625,-0.000496775726787746,0.0026688636280596256,0.00045132433297112584
1761140482963119900,3.695119873046875,0.0006465193000622094,0.001047797966748476,-0.0006325822905637324
1761140482973179000,3.705178955078125,0.002420099452137947,-0.002407235559076071,0.0012551849940791726
1761140482983237600,3.715237548828125,0.001301838201470673,-0.0018913811072707176,0.0006274778861552477
1761140482993298000,3.7252978515625,0.0001779302256181836,-0.0018854436930269003,-0.00009803182911127806
1761140483003357000,3.73535693359375,-0.00045084208250045776,-0.0017573456279933453,-0.00005648651858791709
1761140483013416000,3.745416015625,-0.000229467055760324,-0.00021729851141571999,0.0005482628475874662
1761140483023475000,3.755474853515625,0.0002861209213733673,0.0024093776009976864,-0.0013276676181703806
1761140483033533700,3.76553369140625,0.00015309546142816544,0.000007887370884418488,0.0004906295798718929
1761140483043594000,3.775593994140625,0.0014069117605686188,-0.000004629604518413544,-0.0011879607336595654
1761140483053652700,3.78565283203125,0.0020411170553416014,-0.0008898214437067509,-0.0026619350537657738
1761140483063712000,3.7957119140625,0.001447231974452734,0.001546971034258604,0.0004307938797865063
1761140483073770800,3.805770751953125,0.00014997378457337618,0.001448012888431549,-0.0008122525177896023
1761140483083829800,3.815829833984375,0.0008882019901648164,-0.000642834696918726,-0.0001339453738182783
1761140483093890000,3.82589013671875,0.0013744410825893283,0.0007908991537988186,-0.0006679004291072488
1761140483103948800,3.83594873046875,0.0003139703185297549,0.00022550998255610466,-0.00036829477176070213
1761140483114008000,3.846008056640625,-0.0016865464858710766,-0.001048155128955841,-0.0003655884647741914
1761140483124066800,3.85606689453125,0.00016461685299873352,0.0001510661095380783,-0.000858539598993957
1761140483134125800,3.866125732421875,-0.0012130341492593288,0.0013965964317321777,-0.0007043948862701654
1761140483144185900,3.876185791015625,-0.0005789354909211397,-0.0003845258615911007,0.0005752539727836847
1761140483154244900,3.886244873046875,0.00004356063436716795,0.00023964932188391685,0.0005614651017822325
1761140483164304000,3.896303955078125,-0.00011223432375118136,-0.0008101686835289001,0.002544454764574766
1761140483174363000,3.90636279296875,-0.002845493610948324,-0.0005812556482851505,0.0005363013478927314
1761140483184422000,3.916421875,0.0008874594350345433,-0.00011706678196787834,-0.0010440184269100428
1761140483194482000,3.92648193359375,-0.0012860019924119115,0.0015780264511704445,-0.000887286732904613
1761140483204541000,3.936541015625,-0.0001586859580129385,-0.0007040360942482948,-0.000010574120096862316
1761140483214600000,3.946599853515625,-0.001061239163391292,-0.00037074973806738853,0.001712022116407752
1761140483224659000,3.956658935546875,0.0005630227969959378,0.001371223945170641,-0.001312796026468277
1761140483234718000,3.966718017578125,0.0017440778901800513,-0.0004120999947190285,-0.00110548734664917
1761140483244778000,3.976778076171875,0.0008761537028476596,-0.0010299533605575562,-0.0018847284372895956
1761140483254836700,3.986836669921875,-0.0009853983065113425,-0.00002032797783613205,-0.0010074314195662737
1761140483264896000,3.99689599609375,-0.0017601120052859187,-0.0015090350061655045,-0.0029880243819206953
1761140483274954800,4.006954833984375,-0.00009988900274038315,0.000344838947057724,-0.0004456056049093604
1761140483285014000,4.017013916015625,0.00046177164767868817,-0.002280771266669035,0.0029107765294611454
1761140483295073800,4.02707373046875,-0.0016583648975938559,-0.0016088152769953012,-0.0006644788081757724
1761140483305132800,4.0371328125,-0.0013632865156978369,0.00046978192403912544,-0.001032527768984437
1761140483315191800,4.04719189453125,-0.0014621042646467686,-0.0010835141874849796,-0.00027183530619367957
1761140483325250800,4.057250732421875,-0.001495926408097148,0.0014651305973529816,0.0009577461751177907
1761140483335310800,4.067310791015625,0.001446552574634552,0.0014654411934316158,-0.0006739499513059855
1761140483345369900,4.077369873046875,0.0012374944053590298,0.000374344177544117,-0.0012992601841688156
1761140483355428900,4.087428955078125,-0.0015537033323198557,-0.0010209791362285614,0.000649632653221488
1761140483365487900,4.09748779296875,-0.0035516065545380116,0.00010127713903784752,0.0010347256902605295
1761140483375547000,4.107546875,0.0010556624038144946,0.002333263400942087,0.00043953274143859744
1761140483385606700,4.117606689453125,-0.0017523746937513351,0.00017370609566569328,-0.0004736651317216456
1761140483395666000,4.127666015625,-0.0017827425617724657,-0.0008292635902762413,0.002367941429838538
1761140483405724700,4.137724609375,0.0007099761860445142,0.0002605020999908447,0.00255090044811368
1761140483415784000,4.147783935546875,-0.0008188788779079914,-0.0013201367110013962,-0.0005411521415226161
1761140483425842700,4.1578427734375,-0.0007277987897396088,-0.0008676657453179359,-0.0013422309421002865
1761140483435902700,4.16790283203125,-0.00167595106177032,0.0010834550485014915,-0.0013565095141530037
1761140483445962000,4.1779619140625,0.00011635624105110765,-0.000027349218726158142,0.0005194211844354868
1761140483456020700,4.188020751953125,-0.0003839178243651986,0.0016244309954345226,-0.0018395455554127693
1761140483466080000,4.198080078125,0.0016896193847060204,0.0009879358112812042,0.0004646214365493506
1761140483476138800,4.208138671875,0.00028753106016665697,0.00040360912680625916,-0.00017161457799375057
1761140483486198800,4.21819873046875,0.00036662694765254855,0.00048723258078098297,0.0006281326641328633
1761140483496257800,4.2282578125,0.000374081137124449,-0.0020434774924069643,-0.0014628367498517036
1761140483506316800,4.23831689453125,0.0008784838719293475,-0.00024744169786572456,-0.0015746895223855972
1761140483516375800,4.248375732421875,-0.00011926644947379827,0.00034380611032247543,0.002115883631631732
1761140483526434800,4.258434814453125,-0.0004252636572346091,-0.0012945705093443394,-0.00013448740355670452
1761140483536494800,4.268494873046875,0.0009886753978207707,0.001541872974485159,0.0006827343604527414
1761140483546553900,4.278553955078125,0.00033193989656865597,0.0011748895049095154,-0.0009740181849338114
1761140483556612900,4.28861279296875,0.0006327414303086698,-0.0003884127363562584,0.0010212571360170841
1761140483566672000,4.298671875,-0.0001350478851236403,-0.0013362318277359009,0.00016798032447695732
1761140483576731000,4.30873095703125,-0.0014426866546273232,0.0005760546773672104,-0.0014280516188591719
1761140483586791000,4.318791015625,0.00022764800814911723,0.0012407796457409859,0.0007573383045382798
1761140483596850000,4.328849853515625,0.0002811641898006201,0.0003388705663383007,-0.002616007812321186
1761140483606908700,4.33890869140625,0.001378120156005025,-0.0006632772274315357,0.0008074857760220766
1761140483616968000,4.348968017578125,-0.0022713099606335163,-0.001983465626835823,0.00034803658491000533
1761140483627026700,4.359026611328125,-0.0019855527207255363,-0.001435386948287487,0.0005600242293439806
1761140483637087000,4.3690869140625,-0.0010508513078093529,-0.00013351347297430038,0.003445443930104375
1761140483647145700,4.379145751953125,0.00014730484690517187,0.0012598526664078236,-0.0024816873483359814
1761140483657205000,4.389205078125,-0.0030827815644443035,0.0025176797062158585,0.002981860190629959
1761140483667263700,4.399263671875,-0.001185811823233962,-0.00046772370114922523,0.0011589265195652843
1761140483677322800,4.40932275390625,-0.0017256359569728374,0.0001832135021686554,0.0005480938125401735
1761140483687383000,4.419383056640625,0.0008421838283538818,0.0004972000606358051,0.0008487646700814366
1761140483697441800,4.42944189453125,0.0020171725191175938,0.0011005816049873829,-0.00011757435277104378
1761140483707501000,4.4395009765625,-0.000618025369476527,-0.00009304750710725784,-0.0002517976681701839
1761140483717559800,4.449559814453125,-0.0004347998765297234,-0.0015942712780088186,-0.0036960639990866184
1761140483727618800,4.459618896484375,-0.0017365531530231237,0.0007690177299082279,-0.0012102692853659391
1761140483737678800,4.469678955078125,0.0010291392682120204,0.00002123229205608368,0.001116582308895886
1761140483747737900,4.47973779296875,0.0013391312677413225,0.00042709801346063614,-0.0005620080628432333
1761140483757796900,4.489796875,-0.0005260133766569197,0.0015611904673278332,0.00182589131873101
1761140483767855900,4.49985595703125,0.00012885796604678035,0.0003233533352613449,-0.003002153243869543
1761140483777915000,4.509914794921875,0.0001890453859232366,-0.001884940080344677,-0.0009789499454200268
1761140483787975000,4.519974853515625,0.00031101820059120655,0.0008466644212603569,0.0008820670773275197
1761140483798034000,4.530033935546875,-0.0006144963554106653,-0.0005205729976296425,-0.000695582537446171
1761140483808093000,4.540093017578125,-0.001419303473085165,0.00010154116898775101,-0.0007376605062745512
1761140483818152000,4.55015185546875,-0.0026442562229931355,-0.0011681648902595043,-0.0005462176632136106
1761140483828211000,4.5602109375,-0.0012247913982719183,-0.002178834518417716,-0.0012183996150270104
1761140483838271000,4.57027099609375,-0.001311611384153366,0.0009837006218731403,-0.003841032274067402
1761140483848329700,4.580329833984375,0.0009331670589745045,-0.00031538959592580795,0.0005715593579225242
1761140483858389000,4.590388916015625,0.002489520935341716,0.0006978511810302734,0.003280382137745619
1761140483868447700,4.60044775390625,0.0009896287228912115,0.0006182226352393627,0.0022385534830391407
1761140483878507000,4.610507080078125,0.00045047406456433237,0.001207034569233656,-0.00011610938236117363
1761140483888567000,4.620567138671875,-0.004747750237584114,0.001478410791605711,-0.0007912206929177046
1761140483898625800,4.630625732421875,0.0012014362728223205,-0.0010591358877718449,0.0012480738805606961
1761140483908685000,4.64068505859375,0.0012552321422845125,0.0005840347148478031,0.0003473928081803024
1761140483918743800,4.650743896484375,-0.0015485394978895783,0.00010443665087223053,-0.0035363584756851196
1761140483928803800,4.660803955078125,0.0003534900606609881,0.0010541202500462532,0.0012725114356726408
1761140483938862800,4.67086279296875,-0.00021441385615617037,-0.004021267406642437,0.0015531617682427168
1761140483948921900,4.680921875,0.0015142440097406507,-0.0009570345282554626,-0.0016644693678244948
1761140483958980900,4.69098095703125,-0.000006770947948098183,-0.0014806028921157122,-0.0026239766739308834
1761140483969040000,4.701039794921875,0.00013570819282904267,0.0016185175627470016,0.000527608091942966
1761140483979099600,4.711099609375,0.0013177033979445696,0.000027704518288373947,-0.00011823762906715274
1761140483989159000,4.721158935546875,-0.0011585036991164088,0.001580860000103712,0.00012490898370742798
1761140483999217700,4.7312177734375,0.0013919374905526638,-0.0023268444929271936,0.00026072480250149965
1761140484009277000,4.74127685546875,-0.0006696155178360641,0.0002532261423766613,0.0013584798434749246
1761140484019335700,4.751335693359375,-0.00010739202843979001,0.0011882130056619644,-0.0012441439321264625
1761140484029395700,4.761395751953125,0.00031871371902525425,-0.0017026483546942472,0.0009729377925395966
1761140484039455000,4.771455078125,-0.0001197359524667263,-0.0018369988538324833,0.001180747989565134
1761140484049513700,4.781513671875,-0.0007817978039383888,0.002342300023883581,-0.0013290150091052055
1761140484059573000,4.791572998046875,-0.0017098444513976574,0.0000863545574247837,-0.0014173381496220827
1761140484069631700,4.8016318359375,-0.0013271484058350325,-0.0003482731990516186,-0.0022471791598945856
1761140484079691800,4.81169189453125,0.0008583480957895517,-0.001228570006787777,-0.0010946320835500956
1761140484089750800,4.821750732421875,-0.0025076211895793676,0.0012393812648952007,-0.0016826579812914133
1761140484099809800,4.831809814453125,0.00008035218343138695,-0.0008050627075135708,-0.001228154287673533
1761140484109868800,4.841868896484375,-0.0015966404462233186,0.0020535741932690144,-0.001356252352707088
1761140484119927800,4.851927734375,-0.00020845571998506784,-0.00010544899851083755,-0.002510759048163891
1761140484129987800,4.86198779296875,0.0004919556085951626,0.0015497058629989624,-0.001573592540808022
1761140484140046800,4.872046875,-0.0018328411970287561,-0.0018367129378020763,-0.001052964711561799
1761140484150105900,4.88210595703125,-0.0006464028847403824,0.0012261886149644852,-0.002129947068169713
1761140484160164900,4.892164794921875,0.0016280114650726318,-0.0015041814185678959,0.00004044180968776345
1761140484170223900,4.902223876953125,0.0011350603308528662,-0.0007885899394750595,-0.0016221696278080344
1761140484180284000,4.912283935546875,0.0007655634544789791,0.0023423372767865658,-0.00014647276839241385
1761140484190343000,4.922343017578125,-0.0015740236267447472,-0.0005107070319354534,0.0013094773748889565
1761140484200401700,4.932401611328125,-0.001270520850084722,0.0006575547158718109,-0.0018352367915213108
1761140484210461000,4.9424609375,0.0020336629822850227,0.0004008258692920208,0.0005783860106021166
1761140484220519700,4.952519775390625,-0.001251017558388412,0.0007817153818905354,-0.0019055590964853764
1761140484230580000,4.962580078125,0.0003822992439381778,-0.0014843682292848825,-0.0016885113436728716
1761140484240639000,4.972638916015625,0.0001340589951723814,-0.0010780515149235725,-0.001454895013011992
1761140484250697700,4.98269775390625,-0.0006422524456866086,0.00016537820920348167,-0.0005070759216323495
1761140484260757000,4.992757080078125,0.001046624151058495,0.0006124665960669518,-0.0004979778896085918
1761140484270815700,5.002815673828125,0.0014237277209758759,-0.0011686556972563267,-0.0021685787942260504
1761140484280876000,5.0128759765625,-0.00047760416055098176,-0.00045489147305488586,-0.00045630300883203745
1761140484290934800,5.022934814453125,-0.0014067809097468853,-0.0010849954560399055,0.002079559024423361
1761140484300993800,5.032993896484375,-0.00035942118847742677,-0.00046104565262794495,-0.00003296526847407222
1761140484311052800,5.043052734375,0.0007234200602397323,-0.0007862178608775139,0.003019816242158413
1761140484321111800,5.05311181640625,0.00028594437753781676,-0.0014057261869311333,-0.000019732164219021797
1761140484331171800,5.063171875,-0.000626720895525068,0.000416675116866827,0.00032275033299811184
1761140484341230800,5.07323095703125,-0.00013188441516831517,0.000716750044375658,-0.0007402447517961264
1761140484351289900,5.083289794921875,0.0008513546199537814,-0.00019325222820043564,0.0014406177215278149
1761140484361348900,5.093348876953125,-0.0007365462370216846,0.001424666028469801,-0.001563469646498561
1761140484371408000,5.103407958984375,0.00026799814077094197,0.0004182574339210987,0.00038862734800204635
1761140484381468000,5.113468017578125,-0.0012397828977555037,0.0006019729189574718,-0.000669160217512399
1761140484391527000,5.12352685546875,-0.0009718688670545816,-0.00008432334288954735,0.0001508271088823676
1761140484401586000,5.1335859375,0.0012146360240876675,-0.0007690018974244595,-0.0002058501704595983
1761140484411645000,5.14364501953125,0.0012761550024151802,-0.0016920536290854216,0.0018682198133319616
1761140484421704000,5.153703857421875,-0.0005137569969519973,0.0012704520486295223,0.0007908609113655984
1761140484431764000,5.163763916015625,0.0035675372928380966,0.00021690549328923225,-0.00013512017903849483
1761140484441822700,5.17382275390625,-0.0010242724092677236,0.0008130371570587158,0.000039474747609347105
1761140484451882000,5.183882080078125,0.0001025110250338912,-0.00004290277138352394,0.0011950203916057944
1761140484461940700,5.193940673828125,0.0005287835374474525,0.0015029413625597954,0.0006989084649831057
1761140484472000000,5.204,0.0017879260703921318,0.00040918076410889626,0.003015326103195548
1761140484482060000,5.21406005859375,-0.0012313653714954853,-0.00044611142948269844,-0.0005181119777262211
1761140484492118800,5.224118896484375,-0.002751764142885804,0.0020103882998228073,-0.0005671142134815454
1761140484502178000,5.234177978515625,-0.0009820791892707348,-0.0016508570406585932,-0.0036350125446915627
1761140484512236800,5.24423681640625,0.001406510011292994,0.00006368616595864296,0.0020628205966204405
1761140484522296000,5.254296142578125,-0.0001586994039826095,-0.00011511100456118584,0.0013761753216385841
1761140484532355800,5.26435595703125,0.000577398284804076,-0.0020672082901000977,0.0006904113688506186
1761140484542414800,5.274414794921875,-0.001774900360032916,0.0009668893180787563,-0.0008672619005665183
1761140484552473900,5.284473876953125,-0.001664112787693739,-0.002391090616583824,-0.0006744490237906575
1761140484562532900,5.294532958984375,-0.002407719846814871,-0.00262505398131907,-0.00002833292819559574
1761140484572591900,5.304591796875,0.00033373816404491663,0.00019736401736736298,0.00019617151701822877
1761140484582652000,5.31465185546875,0.00009888294152915478,0.0005606743507087231,-0.0005757992621511221
1761140484592711000,5.3247109375,-0.0027642815839499235,-0.0013474803417921066,-0.0013345337938517332
1761140484602770000,5.33477001953125,0.0002177389687858522,0.00030804937705397606,0.0001859506592154503
1761140484612829000,5.344828857421875,-0.0007639022078365088,0.0010132542811334133,-0.002947524655610323
1761140484622888000,5.354887939453125,-0.0005292283603921533,-0.0008155987598001957,0.0002500122063793242
1761140484632948000,5.364947998046875,0.0006897004786878824,-0.0002912222407758236,-0.0015649321721866727
1761140484643006700,5.3750068359375,-0.0005086293676868081,0.0005625924095511436,0.0010065024252980947
1761140484653066000,5.38506591796875,0.0010698263067752123,-0.000608399510383606,-0.0007738206768408418
1761140484663124700,5.395124755859375,-0.00279406551271677,0.00011797808110713959,0.0002465822035446763
1761140484673184000,5.40518408203125,0.0022651415783911943,0.0017156084068119526,-0.00047034077579155564
1761140484683243800,5.415243896484375,-0.0013769215438514948,-0.0011869999580085278,-0.0008579961722716689
1761140484693302800,5.425302734375,0.0002766351099126041,-0.0001925756223499775,-0.00024520279839634895
1761140484703361800,5.43536181640625,-0.0009478306747041643,-0.002580369357019663,-0.00024088972713798285
1761140484713420800,5.4454208984375,-0.0012210709974169731,0.0010697590187191963,-0.0002877614460885525
1761140484723479800,5.455479736328125,0.0016265420708805323,-0.0008258470334112644,0.0008421471575275064
1761140484733539800,5.465539794921875,0.00041480374056845903,0.0008812393061816692,0.000321765459375456
1761140484743598800,5.475598876953125,-0.0024619661271572113,-0.00013000797480344772,0.00003083399496972561
1761140484753657900,5.485657958984375,-0.0003780426341108978,0.00018637534230947495,-0.0029124915599823
1761140484763716900,5.495716796875,0.00041900662472471595,0.002357941120862961,-0.0005045616417191923
1761140484773776000,5.50577587890625,0.00041714246617630124,0.003119072411209345,0.00020916550420224667
1761140484783836000,5.5158359375,-0.0008003520197235048,-0.000987522304058075,-0.0008033971535041928
1761140484793894700,5.525894775390625,-0.0002498765825293958,-0.0006785956211388111,-0.0006481348536908627
1761140484803954000,5.535953857421875,0.0009674671455286443,-0.0014412007294595242,-0.0012619704939424992
1761140484814012700,5.5460126953125,-0.0015878359554335475,-0.001622029347345233,-0.0013567791320383549
1761140484824072000,5.556072021484375,0.0019792260136455297,-0.000040279701352119446,-0.0012328262673690915
1761140484834132000,5.566132080078125,0.0005642885225825012,0.00037330901250243187,-0.0009124479256570339
1761140484844190700,5.576190673828125,-0.0008758864714764059,0.00029715942218899727,-0.0015716110356152058
1761140484854250000,5.58625,0.00041814346332103014,0.0003014206886291504,-0.00025254732463508844
1761140484864308500,5.59630859375,-0.00048040057299658656,0.0006200163625180721,-0.0018519200384616852
1761140484874367700,5.60636767578125,0.0012951288372278214,-0.0003139544278383255,-0.0016063766088336706
1761140484884427500,5.616427490234375,0.0015493303071707487,-0.00026075681671500206,0.0005457035731524229
1761140484894486800,5.62648681640625,0.001187406713142991,0.00018558930605649948,-0.0005730903940275311
1761140484904545500,5.636545654296875,-0.0003753250930458307,0.0011150520294904709,-0.0006416018004529178
1761140484914604500,5.6466044921875,-0.001361227361485362,-0.00021040299907326698,0.000562945962883532
1761140484924663600,5.65666357421875,0.0000738792004995048,0.0013544070534408092,0.0009059193544089794
1761140484934723600,5.6667236328125,-0.002260381355881691,0.001169850118458271,-0.00016680191038176417
1761140484944782800,5.676782958984375,-0.0015423169825226068,0.001588359009474516,0.00032093393383547664
1761140484954841600,5.686841552734375,-0.0006863768794573843,0.0014458801597356796,0.0006407795590348542
1761140484964900600,5.696900634765625,-0.00070931640220806,-0.0012467671185731888,0.0016636435175314546
1761140484974959600,5.706959716796875,-0.0012693791650235653,-0.0009338455274701118,-0.0018093849066644907
1761140484985019600,5.71701953125,0.0005963820731267333,-0.00028592534363269806,0.0017507546581327915
1761140484995078700,5.72707861328125,0.00045843038242310286,-0.0015610468108206987,0.0010090642608702183
1761140485005137700,5.7371376953125,0.0023529359605163336,-0.0013226047158241272,0.0010868648532778025
1761140485015196700,5.74719677734375,0.0008746152161620557,-0.0002067401073873043,0.0011379974894225597
1761140485025255700,5.757255615234375,0.0001860873308032751,-0.0020955996587872505,0.0015534325502812862
1761140485035314400,5.767314453125,0.0016774574760347605,-0.0013901283964514732,0.002185400575399399
1761140485045374700,5.777374755859375,-0.0008716863230802119,0.00035261455923318863,0.0017885705456137657
1761140485055433700,5.787433837890625,-0.0004639564431272447,-0.0013446183875203133,0.00013075285824015737
1761140485065492700,5.79749267578125,-0.0013992772437632084,0.00078232167288661,0.0009295758209191263
1761140485075551700,5.8075517578125,0.0019840027671307325,-0.0015218453481793404,-0.0012691300362348557
1761140485085610800,5.81761083984375,0.0013111588777974248,-0.0013475357554852962,-0.0000677750795148313
1761140485095670800,5.8276708984375,0.0014656222192570567,0.0005792612209916115,-0.0008400917868129909
1761140485105729500,5.8377294921875,-0.0012070238590240479,0.0008368827402591705,-0.0007231152267195284
1761140485115788800,5.847788818359375,0.00007235881639644504,0.0010818936862051487,0.00030593021074309945
1761140485125847600,5.85784765625,-0.0011351833818480372,0.00030195992439985275,-0.0011767090763896704
1761140485135907600,5.867907470703125,0.00152185233309865,0.0013848012313246727,0.000058465113397687674
1761140485145966800,5.877966796875,-0.0020109412726014853,0.0018146084621548653,-0.0018414545338600874
1761140485156025600,5.888025634765625,0.0005928314058110118,-0.001029647421091795,0.001950354315340519
1761140485166084900,5.8980849609375,0.0013516123872250319,-0.001362683717161417,-0.0013680784031748772
1761140485176143600,5.9081435546875,-0.000301677908282727,-0.0006654681637883186,0.0010226411977782845
1761140485186203000,5.918202880859375,0.0005001587560400367,-0.0010473458096385002,0.0006905875634402037
1761140485196262700,5.9282626953125,0.0027103163301944733,-0.00011097826063632965,0.00015129742678254843
1761140485206321700,5.93832177734375,-0.0000643048551864922,0.0005031749606132507,0.0018110547680407763
1761140485216380700,5.948380615234375,0.00014209013897925615,-0.000325067900121212,-0.0018033874221146107
1761140485226439700,5.958439697265625,-0.0010746696498245,-0.0025440456811338663,-0.0006979082827456295
1761140485236498700,5.968498779296875,-0.00016413495177403092,-0.0002502650022506714,-0.0010768761858344078
1761140485246558700,5.978558837890625,-0.0006666769040748477,0.0003582448698580265,-0.0011049499735236168
1761140485256617500,5.988617431640625,0.0012220368953421712,0.00036570196971297264,0.0006402196013368666
1761140485266676700,5.9986767578125,-0.00048655312275514007,0.0004009711556136608,-0.0029558860696852207
1761140485276735500,6.008735595703125,-0.0013233183417469263,-0.0010073082521557808,-0.0019089971901848912
1761140485286794800,6.018794677734375,0.0010065606329590082,0.0011931215412914753,-0.0012403361033648252
1761140485296854800,6.028854736328125,0.0008603530586697161,0.0011347983963787556,-0.00041129416786134243
1761140485306913500,6.03891357421875,0.000015799421817064285,-0.00046458514407277107,0.00002913415664806962
1761140485316972800,6.048972900390625,-0.00012481556041166186,0.001394833903759718,-0.00012772600166499615
1761140485327031600,6.059031494140625,-0.0005988936172798276,0.0010145911946892738,-0.0013247757451608777
1761140485337090800,6.0690908203125,0.0015193847939372063,0.0007607918232679367,-0.000245662871748209
1761140485347150600,6.079150634765625,-0.0005464990972541273,0.001825573854148388,-0.0008198192226700485
1761140485357209600,6.089209716796875,-0.00017818395281210542,0.0003714882768690586,0.001496065640822053
1761140485367268600,6.0992685546875,0.0011561752762645483,0.001165740191936493,0.003183407010510564
1761140485377327600,6.10932763671875,0.0001130150631070137,-0.00030938489362597466,0.000182024494279176
1761140485387386600,6.11938671875,0.00013091386063024402,0.00016601663082838058,-0.001995796337723732
1761140485397446700,6.12944677734375,0.0008960400591604412,-0.00011254986748099327,-0.0012479807483032346
1761140485407505700,6.139505615234375,0.003222996834665537,0.0012354846112430096,0.0014888597652316093
1761140485417564700,6.149564697265625,0.000024540233425796032,-0.00005481718108057976,0.0013525059912353754
1761140485427623700,6.159623779296875,-0.002006086753681302,0.0019838809967041016,-0.0016678622923791409
1761140485437682700,6.1696826171875,-0.0016446958761662245,0.00008957460522651672,0.0010139408987015486
1761140485447742700,6.17974267578125,-0.0005980627611279488,-0.0003526969812810421,0.0009047263883985579
1761140485457801500,6.189801513671875,0.002361508086323738,0.0010358751751482487,-0.0012894521933048964
1761140485467860700,6.19986083984375,0.00015791651094332337,0.00017125438898801804,-0.00048773002345114946
1761140485477919500,6.20991943359375,-0.0007100076763890684,0.00003516674041748047,-0.0001737433485686779
1761140485487978800,6.219978759765625,-0.0003944973577745259,-0.0012754108756780624,0.0004836340085603297
1761140485498038800,6.230038818359375,0.0021677298936992884,-0.0020953980274498463,-0.0007896232418715954
1761140485508097500,6.24009765625,0.0018461709842085838,0.0021706363186240196,0.002170539926737547
1761140485518156800,6.25015673828125,0.0012679988285526633,-0.00113594438880682,0.0025236750952899456
1761140485528215600,6.260215576171875,-0.0012847172329202294,-0.00006832415238022804,0.0020808184053748846
1761140485538274800,6.27027490234375,0.0008018694934435189,-0.00019748741760849953,0.002700802404433489
1761140485548334600,6.28033447265625,-0.0004498563939705491,-0.0006204620003700256,0.0011982244905084372
1761140485558393600,6.2903935546875,0.0007435061270371079,-0.00044256262481212616,0.0020472402684390545
1761140485568452600,6.30045263671875,-0.0019792821258306503,0.000460796058177948,-0.0010605704737827182
1761140485578511600,6.31051171875,0.0013539302162826061,-0.0004555974155664444,0.002732569817453623
1761140485588570600,6.320570556640625,-0.0008342608925886452,0.0006414251402020454,-0.0008752119611017406
1761140485598630700,6.330630615234375,-0.00003477995051071048,-0.0002741697244346142,-0.001902659423649311
1761140485608689700,6.340689697265625,-0.00013188389129936695,-0.0003363620489835739,-0.0009378936374559999
1761140485618748700,6.350748779296875,0.0004577399813570082,0.00039227912202477455,0.00011378864292055368
1761140485628807400,6.360807373046875,-0.000003141234628856182,0.003467183094471693,0.00038044643588364124
1761140485638866700,6.37086669921875,-0.0007339126314036548,0.0005813818424940109,0.0012116190046072006
1761140485648926700,6.3809267578125,-0.001038837363012135,0.00033152615651488304,0.0010259289992973208
1761140485658985700,6.39098583984375,-0.0004622630076482892,-0.0005518440157175064,-0.0005115137901157141
1761140485669044700,6.401044677734375,-0.000563364359550178,-0.0005521886050701141,-0.0003486587665975094
1761140485679103500,6.411103515625,-0.00007946795085445046,-0.0029128144960850477,-0.0001649006735533476
1761140485689162800,6.421162841796875,-0.00025621900567784905,-0.0015447265468537807,0.0010799291776493192
1761140485699221500,6.431221435546875,-0.0002535558305680752,-0.0005026315338909626,0.002974502043798566
1761140485709281800,6.44128173828125,0.0011703758500516415,-0.0016065221279859543,0.0007414123392663896
1761140485719340500,6.451340576171875,0.0018124639755114913,0.0008417218923568726,0.0013597983634099364
1761140485729399800,6.46139990234375,-0.0014840323710814118,-0.0023251145612448454,-0.0011666795471683145
1761140485739458600,6.47145849609375,-0.0012480762088671327,0.0010075652971863747,-0.0008862487738952041
1761140485749517600,6.481517578125,-0.0018531070090830326,-0.0015719446819275618,-0.0014856272609904408
1761140485759577900,6.491577880859375,0.0017560088308528066,0.0012107924558222294,0.0030430778861045837
1761140485769636600,6.50163671875,-0.001781782484613359,-0.00023569446057081223,0.0009342571720480919
1761140485779695900,6.51169580078125,-0.0010560710215941072,0.0010625962167978287,-0.00014671991812065244
1761140485789754600,6.521754638671875,-0.001558164949528873,0.0017898804508149624,-0.0012597608147189021
1761140485799813600,6.531813720703125,-0.0008694715797901154,-0.0018993965350091457,0.0023743887431919575
1761140485809873700,6.541873779296875,-0.0007714373059570789,-0.000001107342541217804,0.0006753256893716753
1761140485819932700,6.5519326171875,0.0008850488811731339,0.00014723045751452446,-0.0021441630087792873
1761140485829991700,6.56199169921875,0.0007935649482533336,-0.0015808786265552044,-0.00006032234523445368
1761140485840050700,6.57205078125,-0.0003081847680732608,-0.0009217462502419949,0.0007993460749275982
1761140485850109700,6.582109619140625,0.0016412230907008052,-0.0009423117153346539,-0.0005039627430960536
1761140485860169500,6.59216943359375,-0.0021513844840228558,0.0023466921411454678,-0.0016334092942997813
1761140485870228500,6.602228515625,0.0024989645462483168,0.00039256317541003227,-0.0009883780730888247
1761140485880287500,6.61228759765625,-0.0006520876195281744,-0.00007215840741991997,0.0007594545022584498
1761140485890346500,6.622346435546875,-0.00146601558662951,-0.0014054381754249334,-0.0003993592690676451
1761140485900405800,6.63240576171875,-0.00020607415353879333,0.001536023337393999,-0.00005368090933188796
1761140485910465500,6.642465576171875,0.0007860675104893744,0.0013703708536922932,-0.0005071397754363716
1761140485920524500,6.652524658203125,0.00014264779747463763,-0.0006453758105635643,0.0004886161768808961
1761140485930583600,6.66258349609375,-0.001936058048158884,0.0011548930779099464,0.0009510340169072151
1761140485940642600,6.672642578125,-0.0014407101552933455,-0.00009572738781571388,0.0020791490096598864
1761140485950701600,6.68270166015625,0.0008379932260140777,0.0010512471199035645,0.001384225906804204
1761140485960761600,6.69276171875,0.0007197489030659199,-0.0008574402891099453,-0.0018006485188379884
1761140485970820400,6.7028203125,0.0010280667338520288,-0.0023708383087068796,0.000528392440173775
1761140485980879600,6.712879638671875,-0.0017871607560664415,0.0016723726876080036,-0.0025025513023138046
1761140485990938400,6.7229384765625,-0.0017777521861717105,-0.00038578780367970467,0.000715018657501787
1761140486000997600,6.73299755859375,-0.0011777420295402408,0.002525046933442354,-0.0028887707740068436
1761140486011057700,6.7430576171875,-0.0009505768539384007,-0.0009071109816431999,0.0010456775780767202
1761140486021116400,6.753116455078125,0.00032028357964009047,0.000446573831140995,0.0011977441608905792
1761140486031175700,6.76317578125,-0.001061429618857801,0.0006129448302090168,-0.00109771522693336
1761140486041234400,6.773234375,0.0015284945257008076,-0.0011918796226382256,-0.0008857275824993849
1761140486051293700,6.783293701171875,0.0007724756142124534,0.0019215084612369537,0.0021825218573212624
1761140486061352400,6.7933525390625,-0.0027815126813948154,-0.0004561617970466614,0.0010791742242872715
1761140486071412500,6.80341259765625,0.000573516997974366,-0.0006759557873010635,0.0016795613337308168
1761140486081471500,6.813471435546875,-0.0006179812480695546,0.001024472527205944,-0.001077875611372292
1761140486091530500,6.823530517578125,0.0007370252278633416,0.0014331191778182983,0.0005507839377969503
1761140486101589500,6.833589599609375,-0.001513878582045436,-0.0003306921571493149,0.0014474702766165137
1761140486111648500,6.8436484375,-0.00018532469402998686,-0.001230602152645588,0.0005989677738398314
1761140486121708500,6.85370849609375,0.0005925846635363996,-0.0005206032656133175,0.0007979059009812772
1761140486131767600,6.863767578125,-0.0015281479572877288,0.0007728459313511848,0.00027637393213808537
1761140486141826600,6.87382666015625,0.000592260854318738,0.0007030712440609932,-0.0013564102118834853
1761140486151885600,6.883885498046875,0.002150199841707945,0.0024656811729073524,-0.00007680087583139539
1761140486161944600,6.893944580078125,0.00024896921240724623,-0.0008201268501579762,-0.0008240839233621955
1761140486172004400,6.90400439453125,-0.0003272411413490772,-0.0005682315677404404,0.0009075969574041665
1761140486182063600,6.914063720703125,-0.003812786191701889,0.0013971813023090363,-0.0029587801545858383
1761140486192122400,6.924122314453125,-0.001971295103430748,0.002099620644003153,-0.0007014675065875053
1761140486202181600,6.934181640625,-0.0017672969261184335,0.00004925299435853958,-0.0024839211255311966
1761140486212240400,6.944240478515625,0.0009025115869008005,0.0015488164499402046,-0.0004894494777545333
1761140486222300400,6.954300537109375,-0.00035130459582433105,0.0003613131120800972,0.0016879509203135967
1761140486232359400,6.964359375,0.00008803390664979815,-0.002660299651324749,0.0023096329532563686
1761140486242418400,6.97441845703125,-0.00003713468322530389,0.0010920939967036247,-0.0017458288930356503
1761140486252477700,6.984477783203125,-0.0006943962071090937,0.0008319602347910404,-0.000588831608183682
1761140486262536400,6.994536376953125,0.0006252001621760428,0.0024128127843141556,-0.00009960884926840663
1761140486272596500,7.004596435546875,-0.002856434788554907,-0.0002266429364681244,-0.0007140386733226478
1761140486282655500,7.014655517578125,-0.0003836896503344178,-0.0019707470200955868,0.00042579430737532675
1761140486292714500,7.024714599609375,0.0009532871190458536,0.000312265008687973,0.0013937462354078889
1761140486302773500,7.0347734375,0.00034262429107911885,-0.000989754218608141,-0.0012188146356493235
1761140486312832500,7.04483251953125,-0.0004121389938518405,0.0003038328140974045,0.0008423302788287401
1761140486322892500,7.054892578125,-0.0014270696556195617,-0.0002458435483276844,-0.0005374535103328526
1761140486332951600,7.06495166015625,0.00008837063796818256,0.0018155700527131557,-0.0015226735267788172
1761140486343010300,7.07501025390625,-0.00045677844900637865,0.0002600178122520447,-0.0011484993156045675
1761140486353069600,7.085069580078125,0.000012515636626631021,-0.0013499357737600803,0.0011346102692186832
1761140486363128300,7.09512841796875,-0.0006399587728083134,0.000046626199036836624,-0.0012606368400156498
1761140486373188600,7.105188720703125,0.0020417168270796537,-0.0010620350949466228,0.000473372230771929
1761140486383247600,7.11524755859375,-0.0011000141967087984,0.0005523734726011753,-0.001825734623707831
1761140486393306400,7.125306396484375,0.00027591275284066796,-0.0013157371431589127,0.0016654159408062696
1761140486403365600,7.13536572265625,-0.00005352025618776679,0.0008195852860808372,-0.00007336196722462773
1761140486413424400,7.14542431640625,0.0010072942823171616,-0.0019502588547766209,-0.004421933088451624
1761140486423483600,7.155483642578125,-0.0003855389077216387,-0.00042266957461833954,-0.000613879004959017
1761140486433543400,7.16554345703125,0.00044896278996020555,-0.0020414581522345543,-0.00121826003305614
1761140486443602700,7.175602783203125,0.0003562847850844264,-0.0025679650716483593,0.0014901747927069664
1761140486453661400,7.185661376953125,-0.0004044473171234131,0.0022495463490486145,0.0005211601965129375
1761140486463720400,7.195720458984375,-0.0010020607151091099,0.0007222234271466732,-0.00025275436928495765
1761140486473779500,7.205779541015625,-0.0017370274290442467,0.001910411287099123,0.001017158618196845
1761140486483839500,7.215839599609375,-0.0018270423170179129,-0.000262195710092783,0.001079742913134396
1761140486493898800,7.225898681640625,0.0004463086952455342,0.000527690164744854,0.0005452580517157912
1761140486503957500,7.23595751953125,-0.00012254249304533005,-0.0013937805779278278,0.0018422175198793411
1761140486514016500,7.2460166015625,-0.0011746854288503528,0.001065884716808796,-0.0029097208753228188
1761140486524075500,7.256075439453125,-0.00026787910610437393,0.01513589732348919,0.008653458207845688
1761140486534135600,7.266135498046875,-0.0019205447752028704,-0.0005635777488350868,-0.0023634755052626133
1761140486544194600,7.276194580078125,0.0012518127914518118,0.002403183374553919,0.0009122125920839608
1761140486554253600,7.286253662109375,0.0008131489739753306,0.0001304694451391697,0.0021908427588641644
1761140486564312600,7.2963125,0.0006552234990522265,-0.000494041945785284,-0.000213192543014884
1761140486574371600,7.30637158203125,-0.0014774699229747057,0.004731765016913414,0.0016583288088440895
1761140486584431400,7.316431396484375,0.0018032784573733807,0.0007412843406200409,0.0026801838539540768
1761140486594490600,7.32649072265625,0.0005355030298233032,0.0016815871931612492,-0.0007114068721421063
1761140486604549600,7.336549560546875,0.0004513471503742039,0.0028419261798262596,0.0010944827226921916
1761140486614608600,7.346608642578125,-0.0004910594434477389,0.0019087488763034344,-0.0005049732862971723
1761140486624667600,7.356667724609375,-0.0011390065774321556,0.0024642841890454292,-0.0019124539103358984
1761140486634727400,7.3667275390625,0.000257582199992612,0.0017997981049120426,0.0004182978591416031
1761140486644786700,7.37678662109375,-0.000431111257057637,0.0020959419198334217,-0.00051167793571949
1761140486654845400,7.386845458984375,0.002621555933728814,-0.00014365743845701218,0.0007955112378112972
1761140486664904700,7.39690478515625,0.0001392235280945897,0.002514710184186697,0.0014690246898680925
1761140486674963500,7.40696337890625,-0.00010536337504163384,0.00031668413430452347,0.0008830194710753858
1761140486685023500,7.4170234375,-0.00033812370384112,-0.00007533328607678413,0.0022380356676876545
1761140486695082500,7.42708251953125,0.00021175993606448174,0.0010118880309164524,-0.001358719659037888
1761140486705141500,7.4371416015625,0.00108128204010427,-0.0024464926682412624,-0.002253541722893715
1761140486715200500,7.447200439453125,-0.00023157772375270724,-0.001473220530897379,-0.0003764275461435318
1761140486725259500,7.457259521484375,-0.0014273370616137981,-0.0017696302384138107,-0.0029229421634227037
1761140486735318500,7.467318603515625,0.0014375608880072832,0.002512460108846426,0.0028100828640162945
1761140486745378600,7.477378662109375,-0.00041892880108207464,-0.0003099576570093632,-0.0010150154121220112
1761140486755437600,7.4874375,0.0007746114279143512,-0.000348034780472517,-0.002063806401565671
1761140486765496600,7.49749658203125,-0.00023206346668303013,-0.0015176953747868538,0.0002853680052794516
1761140486775555600,7.5075556640625,0.001043493626639247,-0.0010783597826957703,-0.0009371242485940456
1761140486785614600,7.517614501953125,-0.0012484227772802114,0.00007425621151924133,0.0012498636497184634
1761140486795674600,7.527674560546875,-0.00033825956052169204,-0.0014747318346053362,-0.00032652512891218066
1761140486805733400,7.5377333984375,-0.0008655655547045171,0.0008542025461792946,-0.0016466539818793535
1761140486815792600,7.547792724609375,-0.0006626811809837818,0.0006413506343960762,-0.00010523281525820494
1761140486825851400,7.557851318359375,-0.001448047230951488,-0.0038985400460660458,-0.0018807624001055956
1761140486835910700,7.56791064453125,-0.0012990091927349567,-0.00035149697214365005,-0.0018656670581549406
1761140486845970700,7.577970703125,0.00035481376107782125,-0.005475685466080904,-0.0011103947181254625
1761140486856029400,7.588029541015625,-0.0027189680840820074,-0.0034221005626022816,0.0001613496569916606
1761140486866088400,7.59808837890625,-0.002241729758679867,-0.005118267610669136,-0.0007651640917174518
1761140486876147200,7.608147216796875,0.0009901109151542187,-0.0014195502735674381,-0.001786110340617597
1761140486886206500,7.61820654296875,0.000021252897568047047,-0.0005220649763941765,-0.00024174328427761793
1761140486896266500,7.6282666015625,-0.0007217723177745938,-0.0009646224789321423,-0.0006510162493214011
1761140486906325200,7.6383251953125,0.0010281908325850964,0.00039598671719431877,-0.0002866957802325487
1761140486916384500,7.648384521484375,0.00115206278860569,-0.0021499954164028168,0.0005330251296982169
1761140486926443300,7.658443359375,-0.0008114859228953719,-0.002091405913233757,-0.001849438762292266
1761140486936502500,7.66850244140625,-0.0005427066935226321,0.0010992675088346004,-0.0014383014058694243
1761140486946561300,7.678561279296875,0.0011976691894233227,-0.0019037132151424885,-0.0007317648269236088
1761140486956621300,7.688621337890625,0.0009737505461089313,-0.004251583479344845,0.000021064013708382845
1761140486966680300,7.698680419921875,0.00015589379472658038,-0.0019945544190704823,-0.0017243718029931188
1761140486976739300,7.7087392578125,-0.002290926408022642,-0.00010477937757968903,-0.0007565401610918343
1761140486986798300,7.71879833984375,-0.00003895728150382638,0.000025448855012655258,-0.000904611952137202
1761140486996857300,7.728857421875,-0.0006010414799675345,0.00047238729894161224,-0.001885133096948266
1761140487006917400,7.73891748046875,0.00021947850473225117,-0.0013729170896112919,0.0002219600137323141
1761140487016976400,7.748976318359375,0.0012171966955065727,0.000804488081485033,0.0004336425627116114
1761140487027035400,7.759035400390625,-0.0003916188725270331,0.001844185870140791,0.0010387126822024584
1761140487037094400,7.769094482421875,-0.0015859126579016447,0.0015418250113725662,-0.0018900283612310886
1761140487047153400,7.7791533203125,0.0009715209016576409,-0.0022206888534128666,0.0010098875500261784
1761140487057213200,7.789213134765625,0.000989321037195623,0.0004245694726705551,-0.0010943308006972075
1761140487067272400,7.7992724609375,0.0005432415055111051,0.0011928915046155453,-0.0003321341355331242
1761140487077331200,7.809331298828125,-0.0002480042167007923,-0.0004994282498955727,0.002548450604081154
1761140487087390500,7.819390380859375,-0.0010285767493769526,0.0024681324139237404,-0.0007898217299953103
1761140487097449200,7.82944921875,-0.00025785272009670734,0.000471506267786026,-0.0008224057382903993
1761140487107509200,7.83950927734375,0.0007104726391844451,-0.0015919108409434557,-0.0005449043237604201
1761140487117568300,7.849568359375,-0.0017019046936184168,0.002147587016224861,-0.0006779435789212584
1761140487127627300,7.859627197265625,0.001034226967021823,0.0014884546399116516,-0.0012734264601022005
1761140487137686300,7.869686279296875,-0.000649866065941751,0.0005945106968283653,0.0023720269091427326
1761140487147745300,7.879745361328125,0.0010116801131516695,-0.0009802165441215038,0.00011313363211229444
1761140487157805600,7.8898056640625,0.00012811622582376003,0.0008094348013401031,-0.00016861443873494864
1761140487167864300,7.8998642578125,0.00220511551015079,0.0004504406824707985,-0.001023489166982472
1761140487177923300,7.90992333984375,-0.000677297473885119,0.0014312230050563812,0.0018096989952027798
1761140487187982300,7.919982421875,0.00007957295747473836,-0.00034430669620633125,-0.0025786575861275196
1761140487198041300,7.930041259765625,0.00017258519073948264,-0.0012250402942299843,-0.0002823847462423146
1761140487208101400,7.940101318359375,0.0017068323213607073,-0.00009985500946640968,-0.00007865286897867918
1761140487218160400,7.950160400390625,-0.00044580764370039105,0.002481839619576931,0.00003273750189691782
1761140487228219400,7.960219482421875,-0.0007424837094731629,-0.00004736427217721939,-0.00017525535076856613
1761140487238278400,7.9702783203125,-0.0009707100689411163,-0.0010755835101008415,-0.0013867660891264677
1761140487248337200,7.980337158203125,-0.0011523377615958452,0.00029061827808618546,-0.00127970683388412
1761140487258397400,7.9903974609375,-0.00045836198842152953,0.001368689350783825,0.0015604409854859114
1761140487268456400,8.00045654296875,0.0007637625676579773,0.0007345909252762794,-0.0027624021749943495
1761140487278515500,8.010515380859376,-0.0017594009405001998,-0.0009045489132404327,0.0001803116174414754
1761140487288574500,8.020574462890625,0.000003078952431678772,-0.000599617138504982,0.00007831252878531814
1761140487298633200,8.03063330078125,-0.0017380069475620985,-0.00014015426859259605,0.000002444838173687458
1761140487308692500,8.0406923828125,-0.003783847438171506,0.0006417497061192989,0.0008631785167381167
1761140487318752300,8.050752197265625,0.0010504305828362703,0.000990753062069416,0.0005779829807579517
1761140487328811500,8.0608115234375,-0.00010831077815964818,-0.0033448729664087296,-0.0014020772650837898
1761140487338870300,8.070870361328126,-0.00022831099340692163,0.002217902336269617,-0.00000952213304117322
1761140487348929300,8.08092919921875,-0.0009351139306090772,-0.0004748199135065079,-0.0012987583177164197
1761140487358988300,8.09098828125,0.002039724960923195,0.00010346341878175735,-0.0017779849004000425
1761140487369048300,8.10104833984375,0.0009560848120599985,0.0005396893247961998,0.0006175285670906305
1761140487379107600,8.111107666015625,-0.0002128870110027492,-0.0007465705275535583,-0.001669860677793622
1761140487389166300,8.121166259765625,-0.001148721668869257,0.00106331380084157,0.001554961083456874
1761140487399225600,8.1312255859375,0.0001501610386185348,-0.00039463164284825325,0.0018668932607397437
1761140487409284400,8.141284423828125,0.0009610935812816024,0.0015521389432251453,-0.00046310643665492535
1761140487419344400,8.151344482421875,0.00037485494976863265,-0.0013569435104727745,-0.002492772415280342
1761140487429403400,8.1614033203125,0.000616936304140836,0.0006643957458436489,0.0017672202084213495
1761140487439462400,8.17146240234375,0.00026694207917898893,-0.0006968616507947445,0.0017396212788298726
1761140487449521400,8.181521484375,-0.0008119044941850007,0.0013625607825815678,0.0010842173360288143
1761140487459580400,8.191580322265626,-0.00033094710670411587,-0.0014882972463965416,0.0013320170110091567
1761140487469640200,8.20164013671875,-0.0016111285658553243,0.000039824750274419785,-0.0025133213493973017
1761140487479699500,8.211699462890625,-0.0002054235083051026,0.00217060511931777,-0.0005551232025027275
1761140487489758200,8.22175830078125,0.0002595644327811897,0.001656082458794117,0.00019482296193018556
1761140487499817500,8.2318173828125,0.0013042640639469028,-0.00010825973004102707,0.0010286313481628895
1761140487509876200,8.241876220703125,0.0013189114397391677,-0.0007335697300732136,0.0017777786124497652
1761140487519936300,8.251936279296874,-0.00036562199238687754,-0.0017025440465658903,-0.00009612919529899955
1761140487529995500,8.26199560546875,-0.003927865996956825,0.0024727596901357174,-0.0038890030700713396
1761140487540054300,8.27205419921875,0.000018318824004381895,0.001082476694136858,-0.0007245007436722517
1761140487550113500,8.282113525390624,0.004368592519313097,0.0011258861050009727,0.0013040290214121342
1761140487560172300,8.29217236328125,0.03458516299724579,-0.0670761987566948,-0.018597763031721115
1761140487570232300,8.302232421875,-0.031941935420036316,0.062317751348018646,0.02500271052122116
1761140487580291300,8.312291259765624,0.036924149841070175,-0.06510882824659348,-0.020886382088065147
1761140487590350300,8.322350341796875,-0.038232386112213135,0.059995025396347046,0.02109888568520546
1761140487600409300,8.332409423828125,0.03846398741006851,-0.06379677355289459,-0.02105936035513878
1761140487610468400,8.34246826171875,-0.03260273113846779,0.05626625195145607,0.02087690494954586
1761140487620528400,8.3525283203125,0.03232307359576225,-0.05229567736387253,-0.014346606098115444
1761140487630587400,8.36258740234375,-0.03422532603144646,0.04696166515350342,0.017026497051119804
1761140487640646400,8.372646484375,0.030297940596938133,-0.04683525860309601,-0.012575941160321236
1761140487650705400,8.382705322265625,-0.03192015737295151,0.04474206268787384,0.01360213290899992
1761140487660764400,8.392764404296875,0.030802741646766663,-0.038713350892066956,-0.012788712047040462
1761140487670823400,8.402823486328124,-0.034044697880744934,0.036328405141830444,0.014153423719108105
1761140487680883500,8.412883544921876,0.03476991876959801,-0.0351366326212883,-0.013234195299446583
1761140487690942200,8.422942138671875,-0.037510670721530914,0.032096732407808304,0.01244320534169674
1761140487701001500,8.43300146484375,0.03769247233867645,-0.03169103339314461,-0.013591857627034187
1761140487711060200,8.443060302734375,-0.03482221066951752,0.025504611432552338,0.015094648115336895
1761140487721119500,8.453119384765625,0.038933370262384415,-0.02676531858742237,-0.012319682165980339
1761140487731179500,8.463179443359374,-0.042046964168548584,0.018780594691634178,0.014370517805218697
1761140487741238300,8.47323828125,0.04275533929467201,-0.01891392655670643,-0.01238645613193512
1761140487751297500,8.483297607421875,-0.0453454926609993,0.016382278874516487,0.012663503177464008
1761140487761356300,8.493356201171874,0.04234814643859863,-0.010782443918287754,-0.011567440815269947
1761140487771415600,8.50341552734375,-0.04662167280912399,0.009092994034290314,0.010624414309859276
1761140487781475300,8.513475341796875,0.0442536324262619,-0.009759576991200447,-0.010901743546128273
1761140487791534300,8.523534423828124,-0.04957858473062515,0.0036907182075083256,0.00861256942152977
1761140487801593300,8.53359326171875,0.044846586883068085,0.00023141829296946526,-0.010212094523012638
1761140487811652400,8.54365234375,-0.04912065342068672,-0.0013124160468578339,0.008501139469444752
1761140487821711400,8.55371142578125,0.047531720250844955,0.004389026202261448,-0.009101133793592453
1761140487831771400,8.563771484375,-0.04762595519423485,-0.006119541358202696,0.006861853413283825
1761140487841830100,8.573830078125,0.046194545924663544,0.006023914087563753,-0.00853978656232357
1761140487851889400,8.583889404296874,-0.0505937822163105,-0.009923893958330154,0.004432471469044685
1761140487861948200,8.5939482421875,0.047611478716135025,0.011402260512113571,-0.0003244027611799538
1761140487872008200,8.60400830078125,-0.044770918786525726,-0.015302319079637527,0.004923622589558363
1761140487882068200,8.614068115234375,0.046227697283029556,0.016651617363095284,-0.004946052562445402
1761140487892127000,8.624126953125,-0.044818587601184845,-0.01922062784433365,-0.0003379849367775023
1761140487902186200,8.634186279296875,0.04482761397957802,0.020801762118935585,-0.0008376663899980485
1761140487912245000,8.644244873046874,-0.04583517834544182,-0.02165914513170719,0.002335223602131009
1761140487922304300,8.65430419921875,0.04127861559391022,0.026536645367741585,0.0004680900019593537
1761140487932364300,8.6643642578125,-0.019941598176956177,-0.02512015588581562,-0.0026704452466219664
1761140487942423000,8.674423095703125,-0.0005571154179051518,0.009587850421667099,0.006198211573064327
1761140487952482300,8.684482421875,-0.0005512564675882459,-0.006720815785229206,0.0013512581354007125
1761140487962541000,8.694541015625,-0.0014502026606351137,0.001778382807970047,0.0014187118504196405
1761140487972600300,8.704600341796874,-0.002757015870884061,-0.000009663403034210205,-0.003891364671289921
1761140487982659000,8.7146591796875,-0.001843885169364512,-0.00018966058269143105,-0.0003288462175987661
1761140487992719000,8.724718994140625,0.0005263282801024616,0.0013168896548449993,-0.001944053452461958
1761140488002778000,8.734778076171875,-0.00007960840594023466,-0.0015108215156942606,-0.001692109857685864
1761140488012837000,8.744837158203126,0.0004474311717785895,0.001593092456459999,0.002407027641311288
1761140488022896000,8.754896240234375,-0.0037719467654824257,0.0015951301902532578,-0.000645817257463932
1761140488032955100,8.764955078125,0.001887802965939045,-0.0004275408573448658,-0.0001747041242197156
1761140488043015200,8.77501513671875,-0.0007085795514285564,-0.0007079117931425571,-0.0016327300108969212
1761140488053074200,8.78507421875,0.0008981055580079556,-0.0010796887800097466,0.00007222581189125776
1761140488063133200,8.79513330078125,-0.0015413528308272362,-0.00007043033838272095,-0.002409446518868208
1761140488073192200,8.805192138671876,-0.0013757040724158287,0.001511220820248127,-0.0000714575289748609
1761140488083251200,8.815251220703125,0.0010236063972115517,-0.0014717928133904934,0.0005192690878175199
1761140488093311000,8.82531103515625,-0.0005473922938108444,0.0015453025698661804,-0.0006125743384473026
1761140488103370200,8.835370361328126,0.00005594431422650814,0.0025456533767282963,-0.0001528951688669622
1761140488113429000,8.845428955078125,0.0017473178450018167,0.001526195090264082,0.0017193070380017161
1761140488123488300,8.85548828125,-0.0006245579570531845,0.00048474501818418503,0.0003963960916735232
1761140488133547000,8.865547119140626,0.0012969127856194973,0.0009713047184050083,0.0005066509475000203
1761140488143607000,8.87560693359375,0.0020359407644718885,-0.00003001699224114418,-0.0017013296019285917
1761140488153666300,8.885666259765625,-0.00012574705760926008,0.0004003499634563923,-0.0016752306837588549
1761140488163725000,8.89572509765625,-0.00017515005310997367,-0.0007689511403441429,-0.0006911288946866989
1761140488173784300,8.905784423828125,0.0003913043183274567,0.00018499325960874557,-0.0014357486506924033
1761140488183843000,8.915843017578124,-0.00046163774095475674,-0.00032607419416308403,0.0006791053456254303
1761140488193903000,8.925903076171876,0.0005109486519359052,0.000170072540640831,0.0005179840954951942
1761140488203962000,8.935962158203125,-0.0005420000525191426,-0.0015802700072526932,-0.00010853924322873354
1761140488214021000,8.946021240234375,0.0010628208983689547,0.000776361208409071,-0.0017208170611411333
1761140488224080100,8.956080078125,-0.0006105768261477351,0.0012771557085216045,-0.002003001980483532
1761140488234139100,8.96613916015625,-0.0017906235298141837,-0.0003878525458276272,0.000683062244206667
1761140488244198100,8.9761982421875,-0.0007543867686763406,0.0007141893729567528,-0.0015624688239768147
1761140488254258200,8.986258056640626,-0.00268038478679955,-0.0008120681159198284,-0.0007936143083497882
1761140488264317000,8.99631689453125,0.00036440810072235763,-0.0025979571510106325,0.0021090114023536444
1761140488274376200,9.006376220703125,-0.0008651734096929431,-0.002159600844606757,0.0018765174318104982
1761140488284435000,9.01643505859375,-0.0013518664054572582,-0.003179471241310239,0.0021309591829776764
1761140488294494200,9.026494140625,-0.0007630415493622422,-0.0010899552144110203,0.0019461358897387981
1761140488304554200,9.03655419921875,-0.0002451243344694376,0.002267258707433939,-0.002729567466303706
1761140488314613000,9.046613037109376,0.00023238040739670396,0.00024671852588653564,-0.002084017265588045
1761140488324672300,9.05667236328125,0.00034716425579972565,-0.00008106371387839317,-0.0006886941846460104
1761140488334731000,9.06673095703125,-0.00030291336588561535,0.0005453117191791534,0.001124385860748589
1761140488344790300,9.076790283203126,0.00021693407325074077,0.0005694935098290443,-0.0010001107584685087
1761140488354849000,9.08684912109375,0.00005820969818159938,0.001154589932411909,0.0008457262301817536
1761140488364909000,9.096908935546875,0.0007305927574634552,0.0009581618942320347,0.000676763360388577
1761140488374968000,9.106968017578126,0.0009372540516778827,0.0017453921027481556,-0.0008588153286837041
1761140488385027000,9.117027099609375,-0.0013534033205360174,-0.0009503290057182312,0.0001602008123882115
1761140488395086000,9.127086181640625,-0.002690842840820551,0.00020761368796229362,-0.0017516824882477522
1761140488405145000,9.13714501953125,0.0007198734092526138,-0.0002694954164326191,0.0006368709728121758
1761140488415205000,9.147205078125,0.0002109433407895267,0.0003129378892481327,-0.0016435937723144889
1761140488425264000,9.15726416015625,-0.0011784308589994907,-0.0003673122264444828,0.0012242253869771957
1761140488435323100,9.1673232421875,-0.0018199862679466605,-0.00020965328440070152,-0.0016304170712828636
1761140488445382100,9.177382080078125,-0.002085566520690918,-0.000283257570117712,-0.00006610201671719551
1761140488455441200,9.187441162109375,0.0022623101249337196,0.001027816440910101,-0.00045732047874480486
1761140488465501200,9.197501220703124,-0.0028891118708997965,0.0011785319074988365,-0.001315778587013483
1761140488475560200,9.207560302734375,0.0012249394785612822,0.0005143396556377411,-0.0014004670083522797
1761140488485619000,9.217618896484375,0.00012278964277356863,0.0011914358474314213,-0.002048466820269823
1761140488495678200,9.22767822265625,0.00022904976503923535,-0.0009867637418210506,0.0004138920921832323
1761140488505737000,9.237737060546875,-0.0012888817582279444,0.0011408822610974312,-0.0004105372936464846
1761140488515796200,9.247796142578125,0.0013447182718664408,-0.001993125770241022,-0.0008787210681475699
1761140488525856300,9.257856201171874,0.0005101489368826151,-0.00026804395020008087,0.0024512684904038906
1761140488535915300,9.267915283203125,-0.0014579270500689745,0.0010680640116333961,-0.0012276223860681057
1761140488545974300,9.277974365234375,-0.00259676156565547,-0.0007462883368134499,-0.0036166668869554996
1761140488556033000,9.288032958984376,-0.0013091231230646372,0.0017456314526498318,-0.0008283370407298207
1761140488566092300,9.29809228515625,-0.0005732798599638045,0.0014161206781864166,-0.00016324210446327925
1761140488576152000,9.308152099609375,-0.0008148284978233278,0.001289354171603918,-0.0003944044001400471
1761140488586211300,9.31821142578125,-0.00033657392486929893,-0.0011377409100532532,0.0033758985809981823
1761140488596270000,9.32827001953125,-0.0010050273267552257,-0.00014438200742006302,0.00021552544785663486
1761140488606329000,9.3383291015625,0.0009066397324204445,-0.0004184907302260399,-0.000199540751054883
1761140488616388000,9.34838818359375,0.0008440554374828935,-0.002257936168462038,-0.0007161940447986126
1761140488626448100,9.3584482421875,-0.0007496770704165101,0.0021738107316195965,0.00023853674065321684
1761140488636507100,9.368507080078125,-0.0018628784455358982,-0.0001964024268090725,-0.0006645411485806108
1761140488646566100,9.378566162109376,0.00019271450582891703,0.002592434175312519,-0.00279214046895504
1761140488656625200,9.388625244140625,-0.0013135694898664951,0.0025130724534392357,-0.0004948976566083729
1761140488666684200,9.39868408203125,-0.0002644849009811878,-0.0034503773786127567,-0.0007659107213839889
1761140488676743200,9.4087431640625,0.000493717088829726,-0.0004117107018828392,0.003292214125394821
1761140488686803200,9.41880322265625,-0.0001229714835062623,0.0004529198631644249,0.0026882155798375607
1761140488696862200,9.4288623046875,-0.00046119297621771693,-0.0012805317528545856,0.0010754053946584463
1761140488706921200,9.438921142578126,-0.0019317117985337973,0.0001486646942794323,-0.00144853163510561
1761140488716980200,9.448980224609375,0.0005676648579537868,-0.001134979072958231,-0.00007513933815062046
1761140488727039000,9.4590390625,0.0018931637750938535,0.000018505845218896866,0.001655812724493444
1761140488737099300,9.469099365234374,-0.00039156212005764246,0.00018708407878875732,-0.0011378433555364609
1761140488747158000,9.479157958984375,-0.001493761781603098,-0.0008990652859210968,0.0010179238161072135
1761140488757217300,9.48921728515625,0.000051137933041900396,-0.0004569808952510357,0.0004573283949866891
1761140488767276000,9.499276123046876,-0.0007498054765164852,-0.00041107088327407837,0.002037571743130684
1761140488777335000,9.5093349609375,0.0006182604120112956,-0.0015865901950746775,0.0021187979727983475
1761140488787394000,9.51939404296875,-0.0006091347895562649,0.0014355103485286236,-0.001104727853089571
1761140488797454000,9.5294541015625,0.0018303206888958812,-0.0015016898978501558,0.00004149653250351548
1761140488807513300,9.539513427734375,-0.0017501028487458825,-0.00083111971616745,0.00022868014639243484
1761140488817572000,9.549572021484375,-0.00023875897750258446,0.0035881297662854195,-0.001708503346890211
1761140488827631400,9.55963134765625,0.0016006527002900839,0.0022835680283606052,-0.0007164670387282968
1761140488837690000,9.569690185546875,0.0003795934026129544,0.003664949908852577,-0.00024641910567879677
1761140488847749000,9.5797490234375,-0.000492454506456852,0.0004445267841219902,0.0022777216508984566
1761140488857809200,9.58980908203125,-0.0007585042621940374,-0.0012564342468976974,0.0006782272830605507
1761140488867867400,9.599867431640625,0.0001298794522881508,0.0013546566478908062,-0.0003599793999455869
1761140488877926700,9.6099267578125,-0.0021766843274235725,0.00013226550072431564,-0.0009384179138578475
1761140488887985400,9.6199853515625,-0.0008799452916719019,0.002046139445155859,-0.0027926694601774216
1761140488898044700,9.630044677734375,-0.001141467597335577,-0.0009805429726839066,-0.0009220650536008179
1761140488908104400,9.6401044921875,0.002182473661378026,-0.0013327891938388348,0.0021106754429638386
1761140488918163500,9.65016357421875,-0.0018689932767301798,-0.00025340961292386055,-0.00030614330898970366
1761140488928222500,9.660222412109375,0.0010828194208443165,-0.0011972803622484207,0.002629497554153204
1761140488938281500,9.670281494140625,0.0006079778540879488,0.0005513513460755348,0.0016952605219557881
1761140488948340500,9.680340576171876,0.00018892891239374876,0.0003487551584839821,-0.0038148262538015842
1761140488958400500,9.690400390625,0.0020161238498985767,0.0002560769207775593,0.003362126648426056
1761140488968459500,9.70045947265625,-0.0008669732487760484,-0.0004402780905365944,-0.0016572250751778483
1761140488978518500,9.7105185546875,-0.0004906686372123659,0.001273998524993658,0.0005670469836331904
1761140488988577500,9.72057763671875,-0.0006000229623168707,-0.0016101447399705648,0.0018456886755302548
1761140488998636500,9.730636474609375,0.0012000076239928603,0.0010418309830129147,0.00017535407096147537
1761140489008695600,9.740695556640626,-0.0016033330466598272,0.002130727283656597,-0.0015592477284371853
1761140489018755300,9.75075537109375,-0.000534340157173574,0.0007693194784224033,0.0005196158308535814
1761140489028814600,9.760814697265625,-0.00022417865693569183,0.0010089636780321598,0.000118495081551373
1761140489038873300,9.770873291015626,0.0014541454147547483,0.0017772852443158627,0.0004551185993477702
1761140489048932600,9.7809326171875,0.0000530755496583879,-0.0007655010558664799,0.0022625988349318504
1761140489058991400,9.790991455078125,0.000258671585470438,-0.0010656393133103848,0.0025515519082546234
1761140489069050600,9.801050537109376,-0.0005945090670138597,0.00029448559507727623,0.002532476093620062
1761140489079110700,9.811110595703125,-0.0005977049004286528,0.0004103328101336956,-0.000977836549282074
1761140489089169400,9.82116943359375,0.0005118351546116173,-0.0004298877902328968,-0.0001418850151821971
1761140489099228700,9.831228759765626,0.0005126340547576547,0.003657798282802105,0.0008016729261726141
1761140489109287400,9.841287353515625,-0.0005909752799198031,-0.0008231494575738907,-0.0012081415625289083
1761140489119346700,9.8513466796875,-0.0010090916184708476,0.0011135009117424488,-0.0003633868182078004
1761140489129406500,9.861406494140626,0.0010691371280699968,-0.0005796276964247227,-0.0009345038561150432
1761140489139465500,9.871465576171875,-0.0006725702551193535,-0.0015394308138638735,-0.0001083912793546915
1761140489149524500,9.8815244140625,-0.0014488119632005692,-0.0006229220889508724,0.00023578869877383113
1761140489159583500,9.89158349609375,0.0004958281060680747,0.0018716608174145222,-0.0016081840731203556
1761140489169642500,9.901642578125,0.0012038578279316425,0.001892342697829008,0.0007010395638644695
1761140489179701500,9.911701416015624,-0.0015613023424521089,0.001335209235548973,-0.001692875986918807
1761140489189761500,9.921761474609376,-0.0002772808074951172,-0.00019223010167479515,-0.0013742453884333372
1761140489199820500,9.931820556640625,-0.000016024685464799404,0.002342033665627241,-0.0020504218991845846
1761140489209879600,9.941879638671875,-0.003394125495105982,0.0007091010920703411,-0.003619619645178318
1761140489219938600,9.9519384765625,0.0005153948441147804,-0.0010411287657916546,-0.0021474240347743034
1761140489229997600,9.96199755859375,0.00055946025531739,0.0006782738491892815,0.0005224412307143211
1761140489240057300,9.972057373046875,-0.0006219179485924542,-0.00026688165962696075,-0.0005787758273072541
1761140489250116600,9.98211669921875,-0.001785959000699222,-0.001921890303492546,-0.0016907819081097841
1761140489260175400,9.99217529296875,0.0003592172870412469,-0.0008880509994924068,-0.0005408289725892246
1761140489270234600,10.002234619140625,-0.0016746760811656713,0.0003277258947491646,0.001037216978147626
1761140489280293400,10.01229345703125,0.00006569962715730071,-0.0016355565749108791,0.0009802252752706409
1761140489290352600,10.0223525390625,0.000311375770252198,-0.0002691103145480156,-0.0011906945146620274
1761140489300412400,10.032412353515625,0.0009446754702366889,0.00017510494217276573,0.0009867059998214245
1761140489310471400,10.042471435546876,-0.0006343680433928967,-0.0006614434532821178,-0.00006896507693454623
1761140489320530400,10.052530517578125,-0.002292452147230506,0.0004038210026919842,-0.0007014658185653389
1761140489330589400,10.06258935546875,0.00040758756222203374,-0.0001346990466117859,-0.0015050112269818783
1761140489340648400,10.0726484375,-0.0007357075228355825,-0.00013709580525755882,0.0008292495622299612
1761140489350707500,10.08270751953125,-0.0016313797095790505,-0.0005592950619757175,0.0006855650572106242
1761140489360767500,10.092767578125,0.000765465316362679,-0.0003041643649339676,-0.0004449468688108027
1761140489370826500,10.102826416015626,0.0009515367564745247,0.0013145389966666698,-0.0007382493349723518
1761140489380885500,10.112885498046875,0.00266554718837142,-0.002604036359116435,0.00030357931973412633
1761140489390944500,10.122944580078125,-0.000055906770285218954,-0.0017824922688305378,-0.0024543965701013803
1761140489401003500,10.13300341796875,0.001217350480146706,-0.0006929934024810791,0.0005784113891422749
1761140489411063600,10.1430634765625,0.000479264825116843,-0.00038657616823911667,0.00015822792192921042
1761140489421122600,10.15312255859375,0.00014850025763735175,-0.0018361348193138838,-0.0016870764084160328
1761140489431181300,10.163181396484376,0.000924249819945544,0.000016325153410434723,0.0010255464585497975
1761140489441240600,10.173240478515625,0.0005375588079914451,-0.0007232343778014183,0.00022260338300839067
1761140489451299300,10.18329931640625,-0.00008211651584133506,0.00012912461534142494,0.0011461434187367558
1761140489461359600,10.193359619140624,0.00021216273307800293,0.003289764281362295,0.0012310983147472143
1761140489471418600,10.203418701171875,-0.0006533241830766201,-0.0009553921408951283,0.0014066706644371152
1761140489481477400,10.213477294921875,-0.0016895601293072104,-0.0012379535473883152,-0.0003246503765694797
1761140489491536600,10.22353662109375,-0.0006719331722706556,-0.0017371764406561852,-0.000276756240054965
1761140489501595400,10.233595458984375,-0.0004128075670450926,0.0013438346795737743,-0.0008408137364313006
1761140489511654700,10.243654541015625,-0.0018031378276646137,-0.0027550801169127226,-0.0038399414625018835
1761140489521714400,10.25371435546875,-0.0016654524952173233,0.0000015581026673316956,-0.00187799078412354
1761140489531773400,10.2637734375,-0.0002490894985385239,-0.0018086798954755068,0.0004676181706599891
1761140489541832400,10.27383251953125,0.0006822179420851171,0.0004491480067372322,-0.001689275959506631
1761140489551891500,10.283891357421876,0.00009757844964042306,0.0010141842067241669,0.0008716383017599583
1761140489561950500,10.293950439453125,-0.0014041780959814787,-0.0035097275394946337,0.0009283635881729424
1761140489572009500,10.304009521484375,-0.00024297350319102407,0.0022579445503652096,0.0006121096666902304
1761140489582069800,10.31406982421875,-0.0006270013400353491,-0.00023823650553822517,-0.0014491769252344966
1761140489592128500,10.32412841796875,-0.0003145119408145547,0.0006263190880417824,0.00035619991831481457
1761140489602187500,10.3341875,0.0009326463332399726,-0.0004426739178597927,-0.0002850893069989979
1761140489612246500,10.34424658203125,0.00030980794690549374,-0.0013145813718438148,0.0007382319890893996
1761140489622305500,10.354305419921875,0.0007811874966137111,0.000308881513774395,-0.0012106692884117365
1761140489632364500,10.364364501953125,-0.0004838636377826333,-0.0007159863598644733,0.0006768318125978112
1761140489642424600,10.374424560546874,0.0016458663158118725,0.00008509261533617973,0.00012129644164815545
1761140489652483600,10.384483642578125,-0.0004535928019322455,-0.0014814876485615969,-0.0001976662315428257
1761140489662542600,10.39454248046875,0.0008012886391952634,-0.0005035749636590481,0.002330206334590912
1761140489672601300,10.404601318359376,-0.0024431997444480658,-0.0013454160653054714,0.0016764820320531726
1761140489682660600,10.41466064453125,-0.0010793950641527772,-0.0013808361254632473,-0.0017454136395826936
1761140489692720400,10.424720458984375,-0.0009092639666050673,-0.0003651943989098072,0.0025916513986885548
1761140489702779600,10.434779541015626,0.0009847761830314994,-0.0012594838626682758,0.0013024151558056474
1761140489712838400,10.44483837890625,0.00245139142498374,-0.0008552651852369308,0.0012519521405920386
1761140489722897400,10.4548974609375,-0.0015151207335293293,-0.00012422772124409676,-0.00027537078130990267
1761140489732956400,10.464956298828126,0.000592804339248687,-0.0012538018636405468,-0.001582534285262227
1761140489743015400,10.475015380859375,2.5099143385887146e-7,-0.00013554049655795097,-0.0015396573580801487
1761140489753075700,10.48507568359375,0.0021049990318715572,-0.002863616216927767,-0.00030918943230062723
1761140489763134500,10.495134521484376,-0.0006846622563898563,0.0016256743110716343,-0.0006343612913042307
1761140489773193500,10.505193359375,0.0018690518336370587,0.0006957165896892548,-0.0014899024972692132
1761140489783252500,10.51525244140625,0.0022115344181656837,-0.00033466052263975143,0.0007269128109328449
1761140489793311500,10.5253115234375,0.000473953754408285,0.00014588609337806702,0.0017504054121673107
1761140489803371500,10.53537158203125,-0.0007447086973115802,-0.0004815547727048397,0.0003301416873000562
1761140489813430500,10.545430419921875,-0.0008755012531764805,0.0003842026926577091,0.001195342163555324
1761140489823489500,10.555489501953126,-0.00042143225437030196,0.0001977812498807907,0.003587659914046526
1761140489833548500,10.565548583984375,0.00015158916357904673,0.0006111836992204189,0.0002793761086650193
1761140489843607600,10.575607666015625,-0.0007514887256547809,-0.0006085438653826714,-0.001533703994937241
1761140489853666600,10.58566650390625,-0.00007634767098352313,0.0022608167491853237,0.0031671691685914993
1761140489863726600,10.5957265625,-0.0016265737358480692,-0.0004265792667865753,-0.0003007991472259164
1761140489873785600,10.60578564453125,-0.0012443932937458158,-0.0016215925570577383,-0.0016302939038723707
1761140489883844600,10.6158447265625,0.0008520471164956689,-0.00028255535289645195,0.003899493720382452
1761140489893903600,10.625903564453125,0.0004433293652255088,-0.0024124663323163986,0.0018053825479000807
1761140489903962600,10.635962646484375,0.0008374772151000798,-0.0016127191483974457,0.0011422553798183799
1761140489914021400,10.646021484375,-0.0019503599032759666,0.0004780539311468601,-0.002427132800221443
1761140489924081700,10.65608154296875,-0.0006419487181119621,-0.0025608791038393974,0.002313560340553522
1761140489934140400,10.666140380859375,0.0001693940139375627,-0.0010217013768851757,0.0006641499930992723
1761140489944199700,10.67619970703125,0.001797650707885623,0.001444385852664709,-0.00240754010155797
1761140489954258400,10.686258544921875,-0.00005997822154313326,-0.0003897850401699543,-0.001363827963359654
1761140489964317400,10.6963173828125,0.0013363171601668,-0.002638292033225298,0.0004915964091196656
1761140489974377700,10.706377685546874,-0.0020983105059713125,0.002454182133078575,0.0006293553160503507
1761140489984436500,10.7164365234375,-0.00032650958746671677,0.00022005662322044373,-0.0004196638474240899
1761140489994495700,10.726495849609375,-0.0017890509916469455,0.001012217253446579,-0.0006825631717219949
1761140490004554500,10.736554443359376,0.0035324771888554096,-0.0011883527040481567,0.0011121410643681884
1761140490014613500,10.746613525390625,-0.0007425394142046571,-0.002206935081630945,-0.002639009617269039
1761140490024672500,10.756672607421875,0.00012991210678592324,0.0021497299894690514,-0.0007393768755719066
1761140490034732500,10.766732666015624,0.0012595760636031628,-0.000244013499468565,0.003032926470041275
1761140490044791600,10.77679150390625,-0.0000805265735834837,0.0007552043534815311,0.0013444824144244194
1761140490054850600,10.7868505859375,-0.00033881550189107656,-0.0004749363288283348,-0.0009025026811286807
1761140490064909600,10.79690966796875,0.0001962135429494083,-0.0005529671907424927,-0.0011003754334524274
1761140490074968600,10.806968505859375,0.00037166752736084163,0.000011984724551439285,0.0017488512676209211
1761140490085027600,10.817027587890625,0.0007309279171749949,-0.001003212295472622,0.003090551821514964
1761140490095087600,10.827087646484374,0.0010447092354297638,-0.00021420978009700775,-0.0003088681260123849
1761140490105146600,10.837146728515625,0.0007735993713140488,-0.0011183531023561954,0.00046211702283471823
1761140490115205600,10.84720556640625,0.0008067079470492899,-0.0001544654369354248,0.0013419856550171971
1761140490125264600,10.8572646484375,-0.0017954667564481497,-0.0007483507506549358,-0.000541668152436614
1761140490135323600,10.86732373046875,0.0002641934552229941,0.00043917540460824966,-0.0001680342247709632
1761140490145382700,10.877382568359375,-0.000044200627598911524,-0.001256193034350872,-0.0027574256528168917
1761140490155442400,10.8874423828125,0.000756070192437619,0.0007762792520225048,-0.0008429079316556454
1761140490165501700,10.897501708984375,0.0010799105511978269,0.0006798724643886089,-0.0004215958761051297
1761140490175560400,10.907560546875,-0.0004005777882412076,-0.0006779232062399387,-0.00029103830456733704
1761140490185619700,10.91761962890625,-0.000561965280212462,0.0012416830286383629,-0.0008159474236890674
1761140490195678500,10.927678466796875,0.0011864406988024712,-0.000585759524255991,-0.00011719122994691133
1761140490205738500,10.937738525390625,0.00008522352436557412,0.00041452376171946526,-0.0022892653942108154
1761140490215797500,10.947797607421874,0.0021828697063028812,-0.0003458606079220772,0.000286783033516258
1761140490225856500,10.9578564453125,-0.0002906741574406624,0.0008424418047070503,-0.0029297827277332544
1761140490235915500,10.96791552734375,-0.0012719582300633192,-0.0009536137804389,-0.00022855086717754602
1761140490245974500,10.977974609375,0.0012210267595946789,-0.00021085841581225395,-0.004929030314087868
1761140490256033500,10.988033447265625,-0.0002664319472387433,0.00042664678767323494,0.004102685023099184
1761140490266093600,10.998093505859375,-0.0012376868398860097,0.0015603546053171158,-0.0009352166671305895
1761140490276152600,11.008152587890624,-0.0009562182240188122,-0.00012327032163739204,0.0010755686089396477
1761140490286211600,11.018211669921875,-0.0023458555806428194,-0.00026095565408468246,0.0003940656315535307
1761140490296270600,11.0282705078125,-0.00027737009804695845,-0.00020785396918654442,0.00023442634847015142
1761140490306329600,11.03832958984375,-0.0008321065688505769,-0.0008291695266962051,-0.0002284310758113861
1761140490316388600,11.048388671875,0.00013933086302131414,-0.0012021888978779316,-0.0007741905283182859
1761140490326448400,11.058448486328125,0.0017380265053361654,-0.0014245626516640186,-0.0005225217901170254
1761140490336507600,11.068507568359376,0.0009214241290464997,-0.0015310733579099178,0.001234545256011188
1761140490346566400,11.07856640625,0.0006955880671739578,-0.0015744830016046762,-0.00026747758965939283
1761140490356625700,11.088625732421875,-0.00026998267276212573,0.0011167889460921288,-0.0002585562178865075
1761140490366684400,11.098684326171876,0.0024738721549510956,-0.001304024364799261,-0.0003720069071277976
1761140490376743700,11.10874365234375,0.0006046416820026934,-0.0006565670482814312,0.0005369664286263287
1761140490386803700,11.1188037109375,-0.0019804888870567083,-0.0002983720041811466,0.001415543258190155
1761140490396862500,11.128862548828126,-0.001828321604989469,-0.0009955959394574165,0.0007597013027407229
1761140490406921700,11.138921630859375,-0.0005278999451547861,0.0003724698908627033,-0.0009844029555097222
1761140490416980500,11.14898046875,0.0009043975733220577,-0.002012190641835332,0.002622130559757352
1761140490427039700,11.159039794921876,-0.0000013434910215437412,0.0007215444929897785,-0.0003638056805357337
1761140490437098500,11.169098388671875,-0.001987348310649395,-0.001719549298286438,-0.0012628039112314582
1761140490447158500,11.179158447265625,0.00005343189695850015,0.0011052656918764114,0.0005742445937357843
1761140490457217500,11.189217529296876,0.00007242598803713918,0.001992344856262207,-0.002225379692390561
1761140490467276500,11.199276611328125,0.00015125557547435164,0.005218497943133116,0.00003244838444516063
1761140490477335600,11.20933544921875,-0.0005435867933556437,0.005253615323454142,0.00008690607501193881
1761140490487394600,11.21939453125,-0.0006506459321826696,0.005094890948385,0.0028704418800771236
1761140490497454600,11.22945458984375,-0.000025314162485301495,0.006230338476598263,0.0035925216507166624
1761140490507513600,11.239513671875,0.0012759063392877579,0.006116089411079884,0.0018374985083937645
1761140490517572600,11.249572509765626,0.002351828385144472,0.004652064759284258,0.004342980217188597
1761140490527631600,11.259631591796875,-0.0007353079272434115,0.005092018749564886,-0.000972156529314816
1761140490537690600,11.269690673828125,-0.0005347504047676921,0.0006050397641956806,-0.00008331239223480225
1761140490547749600,11.27974951171875,-0.0009107886580750346,-0.0004522353410720825,-0.00022765574976801872
1761140490557809700,11.2898095703125,-0.0011134049855172634,-0.004373267292976379,-0.0020832668524235487
1761140490567868400,11.299868408203125,-0.00040899880696088076,-0.004504561424255371,-0.0055685462430119514
1761140490577927700,11.309927734375,0.00020706496434286237,-0.00754129234701395,-0.0007804353954270482
1761140490587986400,11.319986328125,-0.0008142573060467839,-0.004723401740193367,-0.0019442369230091572
1761140490598045700,11.330045654296875,-0.0015066001797094941,-0.0026577289681881666,-0.00014759029727429152
1761140490608104400,11.3401044921875,-0.00028847018256783485,-0.00005901651456952095,-0.0007119141519069672
