time,seconds_elapsed,z,y,x
1761139674476379000,0.07237890625,-2.2638509406685827,0.5101871449965983,0.40537415033672003
1761139674486438100,0.082438232421875,-2.7131916219711303,0.5864948702599853,0.2697908639578149
1761139674496497000,0.092496826171875,-2.6543665080368517,0.5217602034883574,0.14849833406414836
1761139674506557000,0.102556884765625,-2.2494793009668586,0.4336715491361916,0.22807518065869806
1761139674516616000,0.112615966796875,-1.632708169582486,0.434141285539791,0.41188492047023023
1761139674526675000,0.122675048828125,-0.9856365924805403,0.4606812096800655,0.5885071964630857
1761139674536734000,0.13273388671875,-0.4356558548212051,0.45280945339165624,0.680758011996001
1761139674546793000,0.14279296875,-0.06224164437949657,0.42243711148165164,0.760074344490841
1761139674556852000,0.15285205078125,0.1555120487511158,0.42357393349185585,0.8194384606726467
1761139674566912000,0.162912109375,0.2399374678879976,0.4432101426582783,0.8539620039779693
1761139674576971000,0.172970947265625,0.2949690347582102,0.5704581468902528,0.7995579944215715
1761139674587030000,0.183030029296875,0.23842004906237124,0.6602734423719346,0.713180126042664
1761139674597089000,0.193089111328125,0.0858949071675539,0.7186054390270262,0.5869008572449907
1761139674607148000,0.20314794921875,0.1125467672497034,0.6819730138089507,0.4438291148068383
1761139674617207000,0.21320703125,0.21524492518007754,0.6454650917533785,0.28479698390448466
1761139674627266800,0.223266845703125,0.49595630200505253,0.598526668837294,0.2188522289570421
1761139674637326000,0.233326171875,1.01668931787014,0.5902198821324854,0.1725972217278555
1761139674647384800,0.243384765625,1.520600962793827,0.6361579688996076,0.19544738797210157
1761139674657444000,0.253444091796875,1.7667255948841571,0.6492020863246172,0.23590075971782207
1761139674667502800,0.2635029296875,1.8217407951414584,0.6475432862669229,0.28937983644902704
1761139674677562000,0.27356201171875,1.67279818790853,0.6933014133572578,0.2591182979697361
1761139674687622100,0.2836220703125,1.4982248803347349,0.7334613551143556,0.16838164985943585
1761139674697681000,0.293680908203125,1.2249462838590144,0.7331913790665566,0.005980937573127448
1761139674707740200,0.303740234375,0.9900900647580623,0.7467210880514233,-0.08280660402970388
1761139674717799000,0.313798828125,0.8264683593094349,0.8215858479648828,-0.11465353027060628
1761139674727858200,0.323858154296875,0.6807797854363918,0.9399240580976009,-0.08067677066046744
1761139674737917000,0.3339169921875,0.5615168616741896,1.0555741981901228,0.02750741746556014
1761139674747977000,0.34397705078125,0.2737526437282562,1.142639975767955,0.07558646178413182
1761139674758036000,0.354035888671875,-0.27389292898178097,1.1448715342123061,0.08591222362853586
1761139674768095000,0.364094970703125,-0.7739788781374692,1.0028492277618497,0.033742183669283984
1761139674778154000,0.374154052734375,-1.0465677387833594,0.8747581237692386,0.03995857396610081
1761139674788213000,0.384212890625,-1.0299725778132676,0.835832765308395,0.04009714218657463
1761139674798272000,0.39427197265625,-0.858605957326293,0.8005644680503755,0.047381417443230746
1761139674808332000,0.40433203125,-0.6199602828145027,0.7556554320700466,0.1251958940077573
1761139674818390800,0.414390869140625,-0.298164031407237,0.7426414905875921,0.20843414918668568
1761139674828450000,0.424449951171875,-0.011525602620840071,0.6836750684864819,0.2985221971951425
1761139674838509000,0.434509033203125,0.2721972309798002,0.6064418989412487,0.33855197323393077
1761139674848568000,0.444568115234375,0.49836453219056126,0.5492594376474619,0.33930443556904794
1761139674858627000,0.454626953125,0.5754080243825912,0.5012023128997535,0.3205787653762847
1761139674868686800,0.464686767578125,0.617865356361866,0.4532060514938086,0.3427027727704495
1761139674878746000,0.47474609375,0.6223895557880401,0.41574981573745606,0.35030532019603994
1761139674888804900,0.484804931640625,0.6108095926314592,0.3806839822489768,0.3535519374344498
1761139674898864000,0.494864013671875,0.557041762086749,0.33676870654635127,0.4018853583728894
1761139674908923000,0.5049228515625,0.5238157843112945,0.3222384422168135,0.41083661699369545
1761139674918982100,0.514982177734375,0.5821674355149269,0.30395576655119655,0.4438621037609875
1761139674929042000,0.5250419921875,0.6592956833809613,0.29196700339801607,0.4402382141754031
1761139674939101000,0.535100830078125,0.7378156778663396,0.2301709108289331,0.44100949080884455
1761139674949160000,0.545159912109375,0.7887947544753551,0.17768172191791234,0.4578839071117341
1761139674959219000,0.555218994140625,0.7244079147607088,0.14021401491947472,0.46283973942082374
1761139674969278000,0.56527783203125,0.6506897675991058,0.0976522727176547,0.40969968538563695
1761139674979337000,0.5753369140625,0.5654810891300439,0.07407835877612233,0.3122624071255326
1761139674989397000,0.58539697265625,0.5311585482895373,0.029977643503993748,0.18098887370452285
1761139674999456000,0.5954560546875,0.5739613327056169,0.016459990283101796,0.10931367621314711
1761139675009515000,0.605514892578125,0.5731564460635185,0.023687603449076413,0.04961475228613708
1761139675019574000,0.615573974609375,0.4523135596334934,-0.007094488305598497,-0.050823360890918406
1761139675029633000,0.625633056640625,0.32796938708424567,-0.044989992262050506,-0.1574023925423622
1761139675039692000,0.635692138671875,0.15950141064822673,-0.13781477175801993,-0.22297429558942092
1761139675049752000,0.645751953125,0.043299628022313116,-0.20912527325600386,-0.2544389262481592
1761139675059810800,0.655810791015625,0.06057867960333824,-0.1906416681908071,-0.26966572147449475
1761139675069870000,0.6658701171875,0.08683481836616992,-0.15404950191788375,-0.2674492692677304
1761139675079928800,0.6759287109375,0.09432838899195194,-0.21905096639953553,-0.3277912175057456
1761139675089988000,0.685988037109375,0.07725684268176555,-0.2899796289730817,-0.3636623394951224
1761139675100046800,0.696046875,0.08892682220935821,-0.34376141497790813,-0.3989553693355992
1761139675110106000,0.706106201171875,0.18568682226240635,-0.4000511286830529,-0.4014375415401533
1761139675120166100,0.716166259765625,0.22967793968021868,-0.4152721517557278,-0.38873314093090594
1761139675130225000,0.726224853515625,0.2624000595867634,-0.4502593670500442,-0.3971973101545125
1761139675140284000,0.736283935546875,0.2651578338623047,-0.4573111487250775,-0.38585283625423905
1761139675150343000,0.746343017578125,0.20977613838016987,-0.5044411852231249,-0.3521803202876821
1761139675160402000,0.75640185546875,0.0941337432026863,-0.5034857841944321,-0.31750538581293075
1761139675170461000,0.7664609375,-0.05197802451848983,-0.5508140101457014,-0.36278778515029697
1761139675180520700,0.776520751953125,-0.06318740079700946,-0.5585732094377279,-0.41298718262370676
1761139675190580000,0.786580078125,0.02204056689441204,-0.5034976207626983,-0.4106677632328123
1761139675200638700,0.796638671875,0.06856617122590541,-0.5337895178476348,-0.4021361547961831
1761139675210698000,0.806697998046875,0.034787820264697074,-0.6013923969993368,-0.35170799006819725
1761139675220756700,0.8167568359375,0.016039865174889565,-0.582449942250736,-0.2985446282226592
1761139675230816000,0.82681591796875,-0.0012795184165239333,-0.6111880705550312,-0.26617669204864647
1761139675240875800,0.836875732421875,-0.05354980387985706,-0.6615759763378649,-0.2119777766102925
1761139675250934800,0.846934814453125,-0.19374679459929464,-0.7291521866783499,-0.11032836054787039
1761139675260994000,0.856994140625,-0.278217806443572,-0.7214704000040888,-0.006051235463516786
1761139675271052800,0.867052734375,-0.3999006508290767,-0.7152122163921594,0.08986192936869337
1761139675281112000,0.877112060546875,-0.545339049333334,-0.6596816870238632,0.17889535375768317
1761139675291170800,0.8871708984375,-0.7905641022354364,-0.5799658703500404,0.2199179767587222
1761139675301230800,0.89723095703125,-1.0564221933215856,-0.5288979098811746,0.18047297833794726
1761139675311289900,0.907289794921875,-1.1557137576788663,-0.473193302587606,0.13740330488029867
1761139675321348900,0.917348876953125,-1.129796057090163,-0.4567725848689675,0.11780499830516054
1761139675331408000,0.927407958984375,-1.230150282242894,-0.5152862217012792,0.03586679287413135
1761139675341467000,0.937466796875,-1.1827981639593839,-0.606230630810745,-0.03506565995854325
1761139675351526000,0.94752587890625,-0.9445686690330505,-0.6381203550137579,-0.13933662016359158
1761139675361586000,0.9575859375,-0.5320177954673767,-0.6498365117706358,-0.2645228238943964
1761139675371644700,0.967644775390625,-0.1182762508124113,-0.7440035727210342,-0.2905148683609441
1761139675381704000,0.977703857421875,0.12547931405901908,-0.7565083956375718,-0.11021154750147834
1761139675391762700,0.9877626953125,0.0539227288454771,-0.6497014141488819,0.01791117547210306
1761139675401822000,0.997822021484375,-0.1303705932319164,-0.5472806118551642,0.009612681671604513
1761139675411880700,1.007880615234375,-0.19630933856368063,-0.577944520590268,0.0363572432721965
1761139675421940000,1.01793994140625,-0.3040413990080356,-0.5557885836878791,0.12800528887268156
1761139675432000000,1.028,-0.41702421958744523,-0.40709041620269415,0.22470968628097324
1761139675442058800,1.038058837890625,-0.6382482191771268,-0.14161577147617935,0.21749964530430732
1761139675452118000,1.048117919921875,-1.0388841985434294,0.06692417617253958,0.1840204599527642
1761139675462176800,1.0581767578125,-1.2835744139164686,0.20906064705457536,0.1956699081489816
1761139675472236000,1.068236083984375,-1.46568980743289,0.3393784871859476,0.26001272605881093
1761139675482294800,1.078294677734375,-1.525923619121313,0.4429048030361533,0.23838150715027004
1761139675492354800,1.088354736328125,-1.5184130973607302,0.49561125142704693,0.2358307997541502
1761139675502413800,1.098413818359375,-1.3165864566802978,0.5501627431627363,0.26750414126012473
1761139675512472800,1.108472900390625,-0.9496668689548968,0.6255990193538368,0.1899875151310116
1761139675522531800,1.11853173828125,-0.6351900006502866,0.5913105269134045,0.12433913104794919
1761139675532590800,1.1285908203125,-0.21178397107124328,0.4364368491310626,0.06457929354682565
1761139675542649900,1.13864990234375,0.3370464275091886,0.3526259086307138,-0.0231920019518584
1761139675552710000,1.1487099609375,0.9278893369108437,0.238982797511667,-0.02542531396187842
1761139675562769000,1.158768798828125,1.5016127692073582,0.113797059571743,0.11434329527765512
1761139675572828000,1.168827880859375,1.9741186375200748,0.020081834042072293,0.283231981343776
1761139675582887000,1.178886962890625,2.1381962700426578,-0.0023484628222882747,0.45970425440669055
1761139675592946000,1.18894580078125,1.9398399358212948,0.13057663719803095,0.538803802345693
1761139675603005000,1.1990048828125,1.7219477110028265,0.36366204723417755,0.957370867460966
1761139675613064700,1.209064697265625,1.2482272062033415,0.49369215646535153,1.2371765276178717
1761139675623124000,1.2191240234375,0.5876403139680624,0.6808315156236291,1.2538950227066874
1761139675633182700,1.2291826171875,-0.036570612028241155,1.0079991578709333,1.0546269074026495
1761139675643242000,1.239241943359375,-0.4444055629879236,1.2072291331216691,0.920267244534567
1761139675653300700,1.24930078125,-0.6252648189634085,1.1986788199845702,0.8581978149168192
1761139675663360000,1.259360107421875,-0.6404688178360461,1.115740132274106,0.7966817083328962
1761139675673418800,1.269418701171875,-0.5602484491735696,1.0095370349626989,0.7181169248577207
1761139675683478800,1.279478759765625,-0.3827268131881952,0.8918162991411983,0.6749741678975522
1761139675693538000,1.2895380859375,-0.07294190209209919,0.8590038706026971,0.7316336282305419
1761139675703596800,1.2995966796875,0.16304361329972744,0.8610040314439683,0.7666648287970572
1761139675713656000,1.309656005859375,0.2527817518919706,0.8139841407895088,0.75004701760374
1761139675723714800,1.31971484375,0.21385610117018222,0.759700396611914,0.6246377000410109
1761139675733773800,1.32977392578125,0.09107494015395641,0.7483660057142376,0.4702322973575443
1761139675743833900,1.339833740234375,0.054016836869716645,0.7562436072215437,0.3826799783717841
1761139675753892900,1.349892822265625,0.13231295947134494,0.7303734721016139,0.3294040229972452
1761139675763951900,1.359951904296875,0.25729426088035107,0.7138446543660014,0.29340609629042447
1761139675774011000,1.370010986328125,0.4020727341711521,0.6820442524142563,0.23042693141661583
1761139675784070000,1.38006982421875,0.534824085059762,0.6153421945597977,0.17224771417044102
1761139675794129000,1.39012890625,0.6008434944123029,0.5444555444970727,0.1739237576238811
1761139675804188700,1.400188720703125,0.5872235498607158,0.501052090774104,0.227889741089195
1761139675814248000,1.410248046875,0.665180649766326,0.4475867503073066,0.30321926897019147
1761139675824306700,1.420306640625,0.747050539201498,0.39429859303832054,0.3913354323837906
1761139675834366000,1.430365966796875,0.7336994747191667,0.37162228552363813,0.40966918064951896
1761139675844424700,1.4404248046875,0.6233329741179943,0.35637568961828947,0.39107254366390404
1761139675854484000,1.45048388671875,0.53587213280797,0.33371384902037676,0.34720797523520885
1761139675864542700,1.460542724609375,0.5017968447268009,0.25736717998608943,0.2783161157188937
1761139675874602800,1.470602783203125,0.5647527748554945,0.16230660426206886,0.24797990456819533
1761139675884662000,1.480662109375,0.7135463290065527,0.0885764013364911,0.26900241699386385
1761139675894720800,1.490720703125,0.9037871613115072,0.059658642148971555,0.23264884524978696
1761139675904780000,1.500780029296875,1.0308563749104738,-0.02442329731248319,0.22148992051687091
1761139675914838800,1.5108388671875,1.1555319713711738,-0.078391326604411,0.22663645309247074
1761139675924897800,1.520897705078125,1.2004290977180003,-0.13722630434557795,0.22281112265065312
1761139675934957800,1.530957763671875,1.1553683052420616,-0.1601288948968053,0.2026819788681343
1761139675945016800,1.541016845703125,1.014015130224824,-0.22352884246595203,0.24309688176698982
1761139675955075800,1.551075927734375,0.8507137427717447,-0.2929424243014306,0.23720365900993345
1761139675965134800,1.561134765625,0.7147907761096954,-0.3822347188223153,0.2106202975867316
1761139675975193900,1.57119384765625,0.6429547894328832,-0.43032691488340497,0.19533052012678234
1761139675985252900,1.5812529296875,0.5359960514485835,-0.4635781001653522,0.19305457455143332
1761139675995311600,1.5913115234375,0.37455811977982517,-0.5549878982968628,0.21032690413072705
1761139676005372000,1.601371826171875,0.2777051807463169,-0.6341411491844803,0.19867551970575004
1761139676015431000,1.611430908203125,0.23824235440790653,-0.6841141174908727,0.1930599083136767
1761139676025490000,1.621489990234375,0.22015140192210672,-0.7100003269627689,0.15023732321858405
1761139676035549000,1.631548828125,0.18542437193393707,-0.7839880848459899,0.12055658030193299
1761139676045607700,1.641607666015625,0.11648293765485286,-0.8814140745270996,0.07790343348961323
1761139676055667000,1.6516669921875,0.06404080275595188,-0.9140953509666025,0.033482729015499355
1761139676065726700,1.661726806640625,-0.013812836775183676,-0.9260163826458155,0.013452990486845373
1761139676075786000,1.671785888671875,-0.1326414607733488,-0.9514457151956855,-0.04679461226491257
1761139676085844700,1.6818447265625,-0.2627139478415251,-1.0036711386039852,-0.07009394704876468
1761139676095904000,1.691904052734375,-0.36093466809689995,-1.000248982135579,-0.0785108247982338
1761139676105962800,1.701962646484375,-0.39497313129901884,-0.9772752991095185,-0.04163925706204027
1761139676116021800,1.712021728515625,-0.43279578921496864,-0.9376933764360844,-0.0016687369298189877
1761139676126082000,1.72208203125,-0.46114334729909895,-0.943736748253554,0.0709022312243469
1761139676136142300,1.732142333984375,-0.509644635617733,-0.9302385303854942,0.12711515336623413
1761139676146201000,1.742201171875,-0.5862094043821096,-0.8942788167972117,0.18577324017053468
1761139676156260400,1.75226025390625,-0.6539981614947319,-0.8738869669578969,0.20645349676348268
1761139676166319000,1.762319091796875,-0.7107511453300714,-0.8655375101551414,0.23770667662862688
1761139676176378400,1.77237841796875,-0.7371388015180825,-0.8742537544436753,0.26093395082326604
1761139676186437000,1.78243701171875,-0.7567980262339115,-0.8629415023125707,0.30498998670345173
1761139676196497200,1.7924970703125,-0.753221921312809,-0.8685162337049841,0.3447632124315947
1761139676206556400,1.802556396484375,-0.7387012285292148,-0.8517591601714491,0.41182420325893904
1761139676216615200,1.812615234375,-0.7457137376397848,-0.7855871906056999,0.38426494600828737
1761139676226674400,1.82267431640625,-0.5326110851854086,-0.72819152495265,0.37493473453987386
1761139676236733200,1.832733154296875,-0.3507552193880081,-0.7745443300005048,0.5277534525537863
1761139676246792200,1.842792236328125,-0.15914251420795916,-0.7312699094846844,0.42276722021885216
1761139676256852200,1.852852294921875,-0.09750468094050883,-0.516513023549877,0.19610070078168063
1761139676266911200,1.8629111328125,-0.18172259480655192,-0.3445993636393919,0.0787032055651769
1761139676276970200,1.87297021484375,-0.17691899391710758,-0.3499613290639594,0.026554865981079638
1761139676287029200,1.883029296875,-0.10179740969836712,-0.5427579102663322,-0.10489597850190475
1761139676297088300,1.893088134765625,-0.0980026935905218,-0.5361121521089226,-0.13657708318922668
1761139676307147300,1.903147216796875,-0.25756314094960686,-0.23123780940808356,-0.08500150199178606
1761139676317206300,1.913206298828125,-0.5615986947387457,0.1358226480927318,-0.048112727392464874
1761139676327266300,1.923266357421875,-1.0551163714200258,0.5490876247445121,0.062139535711891944
1761139676337325000,1.933324951171875,-1.6961141815662384,0.8195089686255902,0.0847398553809151
1761139676347384300,1.94338427734375,-2.2844541682362554,0.868228868130967,0.051467371582612394
1761139676357443300,1.953443359375,-2.729195831310749,0.7098151796542108,-0.20817739794664084
1761139676367502300,1.96350244140625,-2.8460926104635,0.5114057270061224,-0.20141930198855698
1761139676377561300,1.973561279296875,-2.4252596462428566,0.21853823110442608,-0.4838390171013772
1761139676387621000,1.98362109375,-1.755245000448823,0.2343450547084212,-0.31874881000276656
1761139676397680400,1.993680419921875,-1.094838725477457,0.45152270151674745,-0.1374433446297422
1761139676407739100,2.0037392578125,-0.38253742809593677,0.42482155893277374,0.1115578292775899
1761139676417798400,2.01379833984375,0.1794271773457527,0.26168233977146443,0.17302395923994482
1761139676427857200,2.023857177734375,0.5703080708950757,0.2794653588192537,0.2131891251614317
1761139676437916200,2.033916259765625,0.7086714164465665,0.29408388595413415,0.23103377473596481
1761139676447975200,2.04397509765625,0.8137649450808763,0.30898177801966664,0.26348215573504563
1761139676458035200,2.05403515625,0.963581412538886,0.3748315298937261,0.21620160485040396
1761139676468094200,2.06409423828125,1.1695616657674313,0.3979403105415404,0.1486290112391114
1761139676478153200,2.0741533203125,1.3833441171795129,0.37909013718627393,0.0622411329228431
1761139676488212200,2.084212158203125,1.602110786744952,0.30747232330478724,-0.04504051687289029
1761139676498271200,2.094271240234375,1.800053279468417,0.2772583868268877,-0.07926964380890131
1761139676508330000,2.104330078125,1.8899486544489859,0.27208156871087846,-0.04837156099174172
1761139676518390300,2.114390380859375,1.9933160899430513,0.28758593876957894,-0.008381934300251305
1761139676528449300,2.12444921875,2.042836199915409,0.3476107838824391,-0.02582322723828256
1761139676538508300,2.13450830078125,1.9396400293350218,0.3701422395663336,-0.11140172540042549
1761139676548567300,2.1445673828125,1.741602259543538,0.39349326800480483,-0.1846427931021899
1761139676558626000,2.1546259765625,1.366758308559656,0.42002869863305237,-0.2531774732112884
1761139676568685300,2.164685302734375,0.8781821799337863,0.4998067303555086,-0.3466151239085942
1761139676578744000,2.174744140625,0.38107787693738937,0.6207801478300243,-0.23900248859282583
1761139676588804400,2.184804443359375,-0.29786592524349687,0.8978796177681535,-0.09008709816038608
1761139676598863000,2.194863037109375,-1.073191541814804,1.1415594139896332,-0.003105126408487558
1761139676608922400,2.20492236328125,-1.7171382648944853,1.2587589754812418,0.009147767573595046
1761139676618981000,2.214981201171875,-2.168313760408759,1.2448312801547348,0.005953976500965654
1761139676629040000,2.2250400390625,-2.3419985947102306,1.1139059756495058,-0.07069909160137176
1761139676639099100,2.23509912109375,-2.1635107440412042,0.9432920001607388,-0.11286514901649206
1761139676649159200,2.2451591796875,-1.7443781539976595,0.8186082203935832,-0.04068012970630079
1761139676659218400,2.255218505859375,-1.1223445720404386,0.7296613783095032,0.15699927336787803
1761139676669277200,2.265277099609375,-0.3625257366806269,0.607544489888288,0.3438442344231531
1761139676679336200,2.275336181640625,0.33084114312827584,0.5385953472267836,0.449001585541293
1761139676689395200,2.285395263671875,0.923325389996171,0.5669244198061526,0.49476807860117406
1761139676699454200,2.2954541015625,1.2773954330205917,0.5855415150579065,0.5357184766162186
1761139676709513200,2.30551318359375,1.389770935356617,0.4952613785434514,0.5398376754380763
1761139676719573200,2.3155732421875,1.4373931027531623,0.414747506827116,0.5115342852892354
1761139676729632300,2.32563232421875,1.4215385310173034,0.3801782246839255,0.4505477555373683
1761139676739691300,2.335691162109375,1.3951958830147981,0.360563496696949,0.3291912204967812
1761139676749750000,2.34575,1.377465580534935,0.31608788369782265,0.27224048559963704
1761139676759809300,2.355809326171875,1.3647270949929953,0.25799042645096776,0.28551640248652543
1761139676769868000,2.365867919921875,1.3255132749795913,0.24724216487817466,0.36821759164668616
1761139676779927300,2.37592724609375,1.2129992409557104,0.2672015415843576,0.41904067397639155
1761139676789987300,2.3859873046875,1.1827736140400171,0.255214824257791,0.415906102277711
1761139676800046000,2.396046142578125,1.1511258453667164,0.230979085406661,0.3301899492105469
1761139676810105300,2.406105224609375,1.150332064640522,0.16969678757861256,0.2579698220543563
1761139676820164000,2.4161640625,1.1274199756085872,0.045964682513102886,0.1778090380920097
1761139676830223400,2.426223388671875,1.063881277155876,-0.07951477767638862,0.1214484511077404
1761139676840282000,2.4362822265625,0.9317968657433986,-0.1397162945304066,0.10155417552702128
1761139676850342400,2.44634228515625,0.7707225066900253,-0.12741481216624378,0.08739848013091832
1761139676860401200,2.456401123046875,0.5713087723702192,-0.10163045563362538,0.030609803927689788
1761139676870460200,2.466460205078125,0.3530646653741598,-0.1805789777293801,-0.16651033956222236
1761139676880519200,2.476519287109375,0.25767420010864733,-0.22410967456120998,-0.15228548792004584
1761139676890578200,2.486578125,0.10697042842209338,-0.18832981105186045,-0.27463136279154565
1761139676900637200,2.49663720703125,-0.05439677609801292,-0.23437077367156742,-0.35084191129077225
1761139676910696200,2.5066962890625,-0.08744213660955429,-0.3109513610595837,-0.3742847096659243
1761139676920756200,2.516756103515625,-0.09264204334020613,-0.34299258602987975,-0.4003406862141564
1761139676930815200,2.526815185546875,-0.08874328233599663,-0.3267793370494619,-0.44618762409910556
1761139676940874000,2.5368740234375,-0.09113806851804256,-0.3198908561773598,-0.49105534168835724
1761139676950933200,2.546933349609375,-0.06297405030727386,-0.3638882206728682,-0.5409945903882384
1761139676960992000,2.556991943359375,-0.038379122754931445,-0.38042120312694455,-0.5644217162702232
1761139676971051300,2.56705126953125,-0.014209727138280868,-0.40823655403051523,-0.5874801549702883
1761139676981111300,2.577111328125,-0.003925649011135101,-0.4532776554252952,-0.6116924033479765
1761139676991170000,2.587170166015625,0.007323474755883216,-0.44720235409960146,-0.6503555672086775
1761139677001229300,2.597229248046875,-0.023572598767280576,-0.46994394540283824,-0.6927399800822138
1761139677011288000,2.6072880859375,-0.07437281167805194,-0.48734622150473295,-0.7000567328363657
1761139677021347300,2.617347412109375,-0.21897300579249857,-0.4996877070857212,-0.6939664531372487
1761139677031406000,2.627406005859375,-0.4154173689126968,-0.43175066407620905,-0.6908604499459267
1761139677041465300,2.63746533203125,-0.5839905592888593,-0.341634814745374,-0.692693948983401
1761139677051525000,2.647525146484375,-0.8300164071798324,-0.2593565819713287,-0.6237699772957712
1761139677061584100,2.657584228515625,-1.0520230815798044,-0.13514212761581876,-0.49903505186326796
1761139677071643100,2.66764306640625,-1.2908423590928315,0.0001438654500991106,-0.3925889030436054
1761139677081702100,2.6777021484375,-1.4307938506186009,-0.044820727509213606,-0.28203769352529195
1761139677091761200,2.68776123046875,-1.4134826503336428,-0.19232103611249476,-0.13209714302988723
1761139677101820200,2.697820068359375,-1.3415344354540109,-0.24805791997415944,0.086061294976715
1761139677111880200,2.707880126953125,-1.219561083689332,-0.17203465594165027,0.3365451999887824
1761139677121939200,2.717939208984375,-1.0188134704172611,-0.16354341604802758,0.6238858587604016
1761139677131997400,2.72799755859375,-0.6539455545246601,-0.20501897044833747,0.9098958534501492
1761139677142056200,2.73805615234375,-0.5146861369162797,-0.18986776120886206,1.1549965493202208
1761139677152115500,2.748115478515625,-0.7890133656620979,0.018271514950785786,1.3758015928454697
1761139677162174200,2.75817431640625,-1.452677181124687,0.4553277198228985,1.5085155343331396
1761139677172233200,2.768233154296875,-2.1743033562123775,0.9742230719320476,1.4528976920075714
1761139677182293200,2.778293212890625,-2.8356805220425128,1.3873833095677197,1.2466487048402428
1761139677192352300,2.788352294921875,-3.3455303248435255,1.5068487701646982,0.9581532500103116
1761139677202411300,2.798411376953125,-3.3869080448925493,1.3494260654866694,0.6307395971126855
1761139677212470300,2.80847021484375,-2.8499036931842565,1.0448186300937086,0.40630598782673477
1761139677222529300,2.818529296875,-1.808751549708843,0.7852237641207873,0.3709631640277803
1761139677232588300,2.82858837890625,-0.4904974520772695,0.5989232669394463,0.30978447270467874
1761139677242647300,2.838647216796875,0.8452958093762397,0.4119953220421448,0.31761998863592744
1761139677252707300,2.848707275390625,1.8381763816356658,0.24087166173188015,0.3893007482184097
1761139677262766300,2.858766357421875,2.603438284832239,0.037459852485544974,0.4677927587183192
1761139677272825300,2.868825439453125,3.0926304995298386,-0.11841445370670407,0.5391848010199144
1761139677282884400,2.87888427734375,3.495723808920383,-0.31668932018969204,0.7017055960219353
1761139677292943400,2.888943359375,3.5397137572944164,-0.3425204750061035,0.8357780394464731
1761139677303002400,2.89900244140625,3.2045793008863925,-0.18081877783462405,0.7909639882732182
1761139677313062100,2.909062255859375,2.698117386958003,0.06696268155202269,0.7106223313186317
1761139677323121400,2.919121337890625,2.255947035676241,0.33957265805117787,0.8071201733041554
1761139677333180200,2.92918017578125,1.8983026412963866,0.6236646172251552,1.1141291899461299
1761139677343239400,2.939239501953125,1.0435217952162026,0.8841352431192994,1.188806391398236
1761139677353298200,2.949298095703125,0.000855155524611473,0.9006364421956241,1.105197768536955
1761139677363357200,2.959357177734375,-0.8671317936092615,0.717291506884247,1.116152877793461
1761139677373416200,2.969416259765625,-1.457272692221403,0.5450578577717766,1.0150119592424482
1761139677383476200,2.979476318359375,-1.6489134544521569,0.49022210573460906,0.766568382685259
1761139677393535500,2.989535400390625,-1.512963599783182,0.4791887801427394,0.5389839446855709
1761139677403594200,2.99959423828125,-1.1165782635986805,0.4259953154198825,0.6232376970499753
1761139677413653200,3.0096533203125,-0.5901566807031631,0.3358281377606094,0.8461808485824615
1761139677423712300,3.019712158203125,-0.008381459376215934,0.30989575105942785,1.0117848138894885
1761139677433771300,3.029771240234375,0.4755062191724777,0.3469631336286664,1.1154685487911105
1761139677443830300,3.039830322265625,0.6985013200879097,0.40084560352899135,1.0932324593245983
1761139677453890300,3.049890380859375,0.6836170546889305,0.37017522852048274,0.9963108389690518
1761139677463949300,3.05994921875,0.5654091929376125,0.3008502200176008,0.9416017820514738
1761139677474008300,3.07000830078125,0.4663432540297508,0.281903929344099,0.9211792448129504
1761139677484067300,3.0800673828125,0.38305589901208875,0.27588362787496296,0.9373623909160494
1761139677494126300,3.090126220703125,0.4054617920875549,0.2634869963069446,0.9480570956707001
1761139677504185000,3.10018505859375,0.542994532033801,0.22810625165039672,0.9747894736431538
1761139677514245400,3.110245361328125,0.7154279049694537,0.2558281886494718,1.0581200832806528
1761139677524304100,3.12030419921875,0.8313257362127303,0.2812407709939405,1.0669954636536538
1761139677534363400,3.13036328125,0.8378747194647789,0.23740184846315532,1.0320265877336263
1761139677544422100,3.140422119140625,0.7245160513103008,0.18305884837899355,1.0403827665381133
1761139677554481200,3.150481201171875,0.5959317569732666,0.12601645314302296,1.0512329541154206
1761139677564540200,3.1605400390625,0.5174935955524445,0.08310604363400488,1.117103164255619
1761139677574599200,3.17059912109375,0.42390345770716664,0.026403913203068077,1.106572929347679
1761139677584659500,3.180659423828125,0.3866179754078388,0.0026709362423047423,1.0779924392905085
1761139677594718200,3.19071826171875,0.34604748008847236,-0.09455149369072169,1.092650129391998
1761139677604777200,3.200777099609375,0.23103169237673282,-0.14100823403708637,1.0238067486599087
1761139677614836200,3.210836181640625,0.15237082811594008,-0.20071880730269476,0.9422451945215463
1761139677624895200,3.220895263671875,0.07886544692218303,-0.22769272067975252,0.8657727071505039
1761139677634954200,3.230954345703125,0.041159108862280844,-0.2951243349177763,0.8007224350910633
1761139677645013200,3.24101318359375,0.14279986669421196,-0.357843606746383,0.7180639525614678
1761139677655073300,3.2510732421875,0.3240641963392496,-0.4213891733312979,0.5999159312386065
1761139677665132300,3.26113232421875,0.5192360553056001,-0.5047134628258645,0.4697038530366495
1761139677675191000,3.27119091796875,0.7052490407824515,-0.6061644702393562,0.3615808935785666
1761139677685250300,3.281250244140625,0.8207377067029475,-0.6596279840752483,0.2679562324091792
1761139677695309000,3.29130908203125,0.8363257364571094,-0.7174212707437574,0.18650924456119536
1761139677705368300,3.301368408203125,0.7659048772752285,-0.8008215115513652,0.1226545206955634
1761139677715427000,3.311427001953125,0.7143839488744735,-0.8855858072537929,0.0741517893385142
1761139677725487400,3.3214873046875,0.6170002639651299,-0.9298084684051573,0.032224582180567084
1761139677735546400,3.33154638671875,0.47228667260408397,-0.9896233240291475,-0.04416494874791242
1761139677745605000,3.341605224609375,0.34549919855594635,-1.0192448475718499,-0.11803471540780737
1761139677755664400,3.351664306640625,0.2559375855743885,-1.0529197381585835,-0.16932539698295293
1761139677765723100,3.36172314453125,0.26224282319843767,-1.1018330413442103,-0.15440059864418582
1761139677775782400,3.371782470703125,0.3180512196600437,-1.0518390302497893,-0.11734322601230815
1761139677785841200,3.381841064453125,0.3340630277842283,-0.9490698529098183,-0.04199465093754697
1761139677795901200,3.391901123046875,0.2143529447764158,-0.8882398288939147,-0.004013080699415877
1761139677805960200,3.401960205078125,-0.04889174894094467,-0.8306001984171569,0.042055126120243216
1761139677816019200,3.412019287109375,-0.3222130155146122,-0.6939709101166576,0.09828554738620296
1761139677826078200,3.422078125,-0.7003203522086143,-0.6025403979906812,0.173559819682315
1761139677836137200,3.43213720703125,-1.0299491969376802,-0.5565462336547673,0.26058537484761324
1761139677846196200,3.4421962890625,-1.2193664379000664,-0.4906891387244686,0.35323578415736556
1761139677856255200,3.452255126953125,-1.4141694635540245,-0.4908361459797248,0.40763150080945343
1761139677866315300,3.462315185546875,-1.443641641753912,-0.4828375484412536,0.35722752067465335
1761139677876374300,3.472374267578125,-1.4390373628288506,-0.5373617137786001,0.2644813776391558
1761139677886433300,3.482433349609375,-1.373451668718457,-0.6628210810281336,0.13639022798077202
1761139677896492300,3.4924921875,-1.206375438901782,-0.7825719344377517,0.09382062213290482
1761139677906551300,3.50255126953125,-0.8955074087440967,-0.6933223830800503,0.136025285392208
1761139677916610300,3.5126103515625,-0.6018979719012976,-0.5936406138287856,0.11160713917887768
1761139677926670300,3.52267041015625,-0.498669068095088,-0.5296759815815836,0.006156312406342476
1761139677936729000,3.53272900390625,-0.6184007784128188,-0.5880856831153854,-0.11182619789019227
1761139677946788400,3.542788330078125,-0.649240153312683,-0.7211188831526786,-0.1246602344947867
1761139677956847000,3.55284716796875,-0.6946189256966113,-0.7403858936805278,-0.14616305951699612
1761139677966906400,3.56290625,-0.9538912086516618,-0.566118108391948,-0.18356175639983266
1761139677976965000,3.572965087890625,-1.4636246915966271,-0.27009903485784303,-0.17358678075447678
1761139677987024400,3.5830244140625,-2.1877549584597347,0.022873095028684474,-0.07149272619709372
1761139677997084200,3.593084228515625,-2.755347925177216,0.2647341650901362,0.04980626996997744
1761139678007143200,3.60314306640625,-3.1333868728101253,0.4350137575253844,0.14993644057586789
1761139678017202200,3.6132021484375,-3.2869624005407094,0.5568443032858893,0.15122151195034383
1761139678027261200,3.62326123046875,-3.2689187943279743,0.7226585868753492,0.10669405916612594
1761139678037320400,3.633320556640625,-3.0836329540818928,0.7802576661460101,0.04421436824705451
1761139678047379200,3.643379150390625,-2.7053730571746826,0.7335251410655677,0.13901326082758605
1761139678057438500,3.6534384765625,-2.2277771722465753,0.705131698013097,0.16662218417255206
1761139678067498200,3.663498291015625,-1.599416140833497,0.5885467612884938,0.14119181044306606
1761139678077557200,3.67355712890625,-0.6602303338825702,0.452451360668987,0.2403050773576833
1761139678087616300,3.6836162109375,0.3388853333741426,0.40803883950132874,0.34734654345568267
1761139678097675300,3.69367529296875,1.207456804397702,0.4549970630964264,0.36484270838610827
1761139678107734300,3.703734375,1.9000731581002472,0.5050243919385596,0.413516138401255
1761139678117793300,3.713793212890625,2.436731472849846,0.6478984563801438,0.4999951655996963
1761139678127852300,3.723852294921875,2.6241215918987986,0.6334254751957953,0.3701669356161728
1761139678137912000,3.733912109375,2.8292840990036723,0.6698892658486962,0.41085597928129136
1761139678147970800,3.743970703125,2.8615023610413073,0.6570960544448345,0.3507985470730811
1761139678158030000,3.754030029296875,2.875626747983694,0.5493789723739028,0.2360725726207718
1761139678168088800,3.7640888671875,2.8219916039079425,0.5690567556597292,0.0695510540774092
1761139678178148000,3.774148193359375,2.743315542078018,0.7559994232021272,-0.18175178436841816
1761139678188206800,3.784206787109375,2.6613591434031725,0.9595382015626877,-0.40730252458341415
1761139678198266000,3.79426611328125,2.6129098775327204,1.0526898749254643,-0.4840324207816273
1761139678208326100,3.804326171875,2.5176754796117544,1.1436313248928636,-0.5547757533835247
1761139678218385000,3.814385009765625,2.3412679423481224,1.3156710954010487,-0.5542358378205448
1761139678228444200,3.824444091796875,2.058390327399969,1.481072377742827,-0.4674697373090312
1761139678238503000,3.8345029296875,1.5224766935378313,1.7259003941513598,-0.2859270656466484
1761139678248562200,3.844562255859375,0.51832244759202,2.069450066074729,-0.0968806307580322
1761139678258621000,3.854620849609375,-0.7002776821106672,2.182076766692847,0.012012144028767944
1761139678268680200,3.86468017578125,-1.5412702413350343,2.0495777831301094,0.1577912457294762
1761139678278740000,3.874739990234375,-2.005381790789962,1.9283289462476967,0.1124623769018799
1761139678288799000,3.884799072265625,-2.2311223910212514,1.7824238070145249,-0.09285817030891776
1761139678298858000,3.89485791015625,-2.099967369413376,1.6521880922086536,-0.26403299455083906
1761139678308917000,3.9049169921875,-1.5909084247291088,1.5760852418676017,-0.2317194554451853
1761139678318976000,3.91497607421875,-1.083739823836088,1.5587660044066607,-0.09200224759932607
1761139678329035000,3.925034912109375,-0.5584674109756946,1.5107298493817447,0.049323491421714424
1761139678339094000,3.935093994140625,-0.0378495459228754,1.3768683452941477,0.3066441653849557
1761139678349154000,3.945154052734375,0.48387715715467927,1.197588540529832,0.5492647714097052
1761139678359213000,3.955213134765625,0.9527958146303892,1.0598667077522723,0.5739594695420935
1761139678369272000,3.96527197265625,1.301684655624628,0.9474025772847234,0.601505100126192
1761139678379331000,3.9753310546875,1.548152986586094,0.8123647959593683,0.6598964257530867
1761139678389390000,3.98539013671875,1.812317717757821,0.747727050223574,0.7934411920417099
1761139678399449000,3.995448974609375,2.07935186688602,0.6849784061700105,0.8555586985848843
1761139678409508000,4.005508056640625,2.2426363032042977,0.6591962415944784,0.9598857728913426
1761139678419568000,4.015568115234375,2.3824895950525997,0.5688074570737779,1.0525342459723352
1761139678429627000,4.025626953125,2.4549662177205085,0.387914225763455,1.1840410766925662
1761139678439686100,4.03568603515625,2.435935938557982,0.19439912102818488,1.1986381226480007
1761139678449745000,4.045744873046875,2.3650357714265584,-0.005107844533026218,1.0978162799835205
1761139678459804200,4.05580419921875,2.2067174330830572,-0.19786913522630928,0.991914649836719
1761139678469863000,4.06586279296875,1.8278040407031773,-0.3512293762383982,0.8528574768021703
1761139678479922200,4.075922119140625,1.3616156849741934,-0.383601148337312,0.695953096909821
1761139678489982000,4.08598193359375,0.9677560678750275,-0.39618239749092604,0.5485370416570454
1761139678500041000,4.096041015625,0.6636141311019659,-0.4751383722407743,0.5031741974946111
1761139678510100000,4.106099853515625,0.4490671250581741,-0.5446505190799013,0.43751065237503495
1761139678520159000,4.116158935546875,0.1788350566715002,-0.6194343592442572,0.3356296925790608
1761139678530218200,4.12621826171875,-0.1797282061189413,-0.7056979535937309,0.17027537291785702
1761139678540277000,4.136277099609375,-0.5027215583562851,-0.7564864760667085,0.06115163891939446
1761139678550336000,4.1463359375,-0.7111749237000942,-0.7863936116177588,-0.09334002640857361
1761139678560396000,4.15639599609375,-0.7878893300682306,-0.8095766265455633,-0.29557584154494104
1761139678570455000,4.166455078125,-0.7788450228691101,-0.8583355428870767,-0.45308081767894326
1761139678580514000,4.17651416015625,-0.7404290752351284,-0.8805448174118995,-0.5658499224424361
1761139678590573000,4.186572998046875,-0.6945148808002471,-1.0626531966656445,-0.5326845157478004
1761139678600632000,4.196632080078125,-0.6648451342016458,-1.2671122316762804,-0.626759441435337
1761139678610691000,4.206691162109375,-0.690899028390646,-1.2675205202162265,-0.7250718585621565
1761139678620749800,4.216749755859375,-0.7873825495898723,-1.2443446656815706,-0.837327533910796
1761139678630810000,4.22681005859375,-0.8565209677457809,-1.237690614619851,-0.9270036401174963
1761139678640868900,4.236868896484375,-0.9463520453184843,-1.2716839235059916,-0.9894324776321649
1761139678650928000,4.24692822265625,-1.0522972223460674,-1.3240164605505764,-1.0141747777659444
1761139678660987000,4.25698681640625,-1.1069991188704966,-1.4110890331953763,-0.9886869199618696
1761139678671046100,4.267046142578125,-1.1407014819860457,-1.4871730327054857,-1.034799121186882
1761139678681105000,4.27710498046875,-1.1645113966405392,-1.422489402001351,-1.0669051550216972
1761139678691164000,4.287163818359375,-1.2623299658358096,-1.3950716721132397,-1.0878408294141293
1761139678701224200,4.29722412109375,-1.2744336606055497,-1.4833451449804007,-1.0380578307218848
1761139678711283000,4.307282958984375,-1.2371224593430756,-1.4585343827202915,-0.8867975941963493
1761139678721342200,4.31734228515625,-1.3871294809371233,-1.3588473893046378,-0.8019894593521952
1761139678731401000,4.32740087890625,-1.6991572025239468,-1.2150045894287527,-0.6671354370959103
1761139678741460000,4.3374599609375,-2.0018980403274296,-1.08876926937066,-0.4486679696727544
1761139678751519000,4.34751904296875,-2.3885715453147887,-0.8725693084880709,-0.20464893155954778
1761139678761578000,4.357577880859375,-2.8271751440256834,-0.6312294264562428,0.019579510543122885
1761139678771638000,4.367637939453125,-3.212558609202504,-0.46054881547205145,-0.01002520799525082
1761139678781697000,4.377697021484375,-3.320659502959251,-0.4157372485168278,-0.09509659688547253
1761139678791756000,4.387756103515625,-3.1194325817376374,-0.46191608523726463,-0.14410349663868546
1761139678801815000,4.39781494140625,-2.6380969257593154,-0.6365028368145227,-0.12780994896367193
1761139678811873800,4.407873779296875,-1.8633400489866732,-0.8043702170088887,0.1733385050818324
1761139678821933000,4.41793310546875,-1.0558476083040236,-0.7207477848179638,0.40960378726311025
1761139678831991800,4.42799169921875,-0.44487318049967284,-0.6383254491318017,0.5087115194860845
1761139678842052000,4.438052001953125,-0.05842120930850506,-0.6695850952703505,0.7898799193635583
1761139678852111000,4.448111083984375,0.09352116426229476,-0.711540469076857,1.0526144716016947
1761139678862169900,4.458169921875,-0.018779519271850585,-0.567062841896154,1.3244440383128822
1761139678872229000,4.46822900390625,-0.4013853364288807,-0.20900807661712167,1.4408938043504953
1761139678882287900,4.478287841796875,-1.0625579195976256,0.29472591018471866,1.3062507944963873
1761139678892347100,4.48834716796875,-1.9040847318291663,0.7829509238179773,1.0238758683733642
1761139678902406000,4.498406005859375,-2.354411501559615,1.1714851081106812,0.7882893622364848
1761139678912466200,4.508466064453125,-2.4951819082528353,1.4233309673920274,0.5056265956154092
1761139678922525000,4.51852490234375,-2.484917119348049,1.4033265825003385,0.23173680843878536
1761139678932584000,4.528583984375,-1.882604136905074,1.0930988230075687,-0.05355590482708066
1761139678942643000,4.538642822265625,-1.0057990905433893,0.8885334780782461,-0.21882486602608114
1761139678952702000,4.548701904296875,-0.0997241105556488,0.8080586962632834,-0.12491225476078688
1761139678962761000,4.558760986328125,0.9802964004963636,0.9249679695714265,0.08528283968381584
1761139678972820000,4.568820068359375,1.9666303275913,1.0405248784225434,0.3016977219587192
1761139678982880000,4.5788798828125,2.6072955447822808,0.9514427195210009,0.5344457532666623
1761139678992939000,4.58893896484375,2.804844069752097,0.8979156389296055,0.6563253623332828
1761139679002998000,4.598998046875,2.7674966281324624,0.9178230662528425,0.6926843043722212
1761139679013057000,4.60905712890625,2.5510961031764743,0.9630912909343838,0.5479018124934285
1761139679023116000,4.619115966796875,2.400488193079829,1.4322070784173906,0.8597129687201231
1761139679033175000,4.629175048828125,1.8877882615447044,1.427439133363217,0.9479172488085925
1761139679043234000,4.639234130859375,1.0044453378468752,1.419850577930361,0.7308319564588367
1761139679053293000,4.64929296875,0.30169279005527494,1.5868962664783,0.4481290039578452
1761139679063353000,4.65935302734375,-0.09024024289548396,1.4755121132671831,0.3564699803056195
1761139679073411800,4.669411865234375,-0.424128498634696,1.3933501090176403,0.45590011288337406
1761139679083471000,4.67947119140625,-0.6743436149090528,1.2478314848840235,0.5751582143399864
1761139679093529900,4.68952978515625,-0.5343991376459598,1.2792438373662531,0.49244442142657935
1761139679103589000,4.699589111328125,-0.0578004470616579,1.2024464288897811,0.4909260527528822
1761139679113647900,4.70964794921875,0.4459335032075643,1.1420074500180781,0.5521976830564439
1761139679123707100,4.71970703125,0.7147820082813501,1.158694527055323,0.6410689026210457
1761139679133767400,4.729767333984375,0.7491548180043697,1.1989731998212634,0.6170327049300074
1761139679143826200,4.739826171875,0.553666148173809,1.1702442412041127,0.5276227753788233
1761139679153885400,4.749885498046875,0.3833212719500065,1.1491855249539018,0.39206915348581967
1761139679163944200,4.759944091796875,0.28355858294963837,1.1268128034956753,0.2577129977490753
1761139679174003500,4.77000341796875,0.20587796189785001,1.2079314361721276,0.17343133446443826
1761139679184062200,4.780062255859375,0.23652853622734546,1.194120645223558,0.12410736811868846
1761139679194121500,4.79012158203125,0.38699557654857636,1.1403814562514423,0.12467468314524739
1761139679204181500,4.800181396484375,0.488299649772048,1.0750113045878709,0.11831176051720976
1761139679214240300,4.810240234375,0.549106292912364,0.9856029824718833,0.08527392572499812
1761139679224299500,4.820299560546875,0.711454909685254,0.8967876578129828,0.07845569707751274
1761139679234358300,4.830358154296875,0.7854495357006788,0.8943138150453567,0.07430281518176197
1761139679244417500,4.84041748046875,0.78085928530097,0.9344131857216358,0.09053476886264979
1761139679254476300,4.850476318359375,0.7460013224095106,0.8484175946585834,0.014774229153245687
1761139679264535600,4.86053564453125,0.77772624797225,0.734492524792999,-0.045294710829667746
1761139679274595300,4.87059521484375,0.932033012586832,0.7468442029744387,-0.061005782441608605
1761139679284654300,4.880654296875,1.104747540551424,0.8606646434217691,-0.08347867633868009
1761139679294713300,4.89071337890625,1.3597890540689228,0.6827155758045613,-0.017981245033629238
1761139679304772400,4.9007724609375,1.4920990909308194,0.35934053077325223,0.12201547387335449
1761139679314831400,4.910831298828125,1.5348521909862756,0.12895780382454394,0.2898168030941859
1761139679324890400,4.920890380859375,1.5121312406122684,0.1665970679976046,0.4136351251384243
1761139679334949400,4.930949462890625,1.4191215330034495,0.2663917595714331,0.3980433690572157
1761139679345009400,4.941009521484375,1.1659352919638155,0.10892229314222932,0.21625742669086903
1761139679355068400,4.951068359375,0.955295230230689,-0.09641849313899874,0.06726202982477843
1761139679365127400,4.96112744140625,0.7481324892193079,-0.30988091881647706,-0.049297261001914734
1761139679375186400,4.9711865234375,0.6499737282842397,-0.39629502755254503,-0.08198116778992116
1761139679385245400,4.981245361328125,0.5344856468856335,-0.4216165158137679,-0.01938712977617979
1761139679395304400,4.991304443359375,0.4540566039085388,-0.5330462617322802,0.07966299050804228
1761139679405363200,5.00136328125,0.43568157378435135,-0.6985847605876624,0.09824647575113922
1761139679415422500,5.01142236328125,0.331402284142375,-0.7973157684527337,0.08254731377270072
1761139679425482200,5.021482177734375,0.25306349144279955,-0.7886569534398615,0.053965691204369066
1761139679435541500,5.03154150390625,0.18129823191463945,-0.7572510306984186,0.05125716289803386
1761139679445600300,5.041600341796875,0.07767185322344303,-0.7261020053274929,0.11444145842250436
1761139679455659300,5.0516591796875,-0.0021656536012887953,-0.6437438939839601,0.16080025481972843
1761139679465718300,5.06171826171875,-0.0921335092961788,-0.6228260475091636,0.09954173972606659
1761139679475777300,5.07177734375,-0.1281225220441818,-0.6248302269384265,0.10059839090583846
1761139679485836300,5.081836181640625,-0.12437865934073924,-0.5590329359039664,0.11005389098804444
1761139679495896300,5.091896240234375,-0.13352818048000334,-0.46164048316627737,0.09087576432004571
1761139679505955600,5.10195556640625,-0.11380173574686049,-0.33777430339232084,0.1254646644791588
1761139679516014300,5.112014404296875,-0.16040741957724095,-0.22511355437412855,0.14130562781477346
1761139679526073300,5.1220732421875,-0.3037859629422426,-0.1459594997689128,0.17902730957427992
1761139679536132400,5.13213232421875,-0.5021820446521044,-0.10847001933008432,0.2830354358583689
1761139679546191400,5.14219140625,-0.6244423966646194,-0.07780877747610211,0.381864131944254
1761139679556250400,5.15225048828125,-0.6365197879493236,-0.15282003318816423,0.4465720933720469
1761139679566309400,5.162309326171875,-0.5381961918413639,-0.2326025949552655,0.4856705068448558
1761139679576369400,5.172369384765625,-0.43053193593621253,-0.34479134254753585,0.4438877131262794
1761139679586428400,5.182428466796875,-0.2949333789229393,-0.4015918187864125,0.4255252867553383
1761139679596487200,5.192487060546875,-0.2700403452068567,-0.4343871500596404,0.39342414829134936
1761139679606546400,5.20254638671875,-0.3119517337411642,-0.4867370766304433,0.3675349066121503
1761139679616605200,5.212605224609375,-0.3221165694028139,-0.5572782011911273,0.3177771154263988
1761139679626664400,5.22266455078125,-0.3151104900330305,-0.5739522726163268,0.23662324703978374
1761139679636723200,5.23272314453125,-0.26313421908020973,-0.5759434464335441,0.11338066992373205
1761139679646783200,5.242783203125,-0.11637713919281958,-0.7519628611624241,-0.010857713296636939
1761139679656842200,5.25284228515625,0.04114508033692837,-0.9947188936024903,-0.06274429667200893
1761139679666901200,5.2629013671875,0.07018997303545474,-0.9669174250937997,-0.10082701202994213
1761139679676960300,5.272960205078125,-0.004956161102652549,-0.8097235607355833,-0.21926504754163323
1761139679687019300,5.283019287109375,-0.00516658898293972,-0.8507594816096127,-0.3015277722192928
1761139679697078300,5.293078369140625,0.0997977603137493,-0.9889581381186843,-0.4057641360349953
1761139679707137300,5.30313720703125,0.24102409408092498,-0.995217490774393,-0.43731414342224595
1761139679717197300,5.313197265625,0.401748324522376,-0.8336435116358101,-0.45514589698258784
1761139679727256300,5.32325634765625,0.3994926545500755,-0.4283506463743746,-0.4237241921501234
1761139679737315300,5.3333154296875,0.0632861849963665,0.13407280875071884,-0.33624917618427425
1761139679747374300,5.343374267578125,-0.4410100753307342,0.5211572326265275,-0.16107877950016408
1761139679757433300,5.353433349609375,-1.017774775019288,0.7813989451356231,-0.04721870116218924
1761139679767492400,5.363492431640625,-1.4629747032552958,0.8571823542639613,-0.09345350585356355
1761139679777551400,5.37355126953125,-1.676694610825181,0.7127873273327946,-0.19771796325258909
1761139679787610400,5.3836103515625,-1.4798358216851948,0.5590542709529399,-0.3131793027747422
1761139679797670400,5.39367041015625,-1.131547284671664,0.5326589429151266,-0.29459910546727475
1761139679807729200,5.403729248046875,-0.7034335157930851,0.5885252801090478,-0.10122205749582498
1761139679817788400,5.413788330078125,-0.3302431772351265,0.6357799293674529,0.11929956597816198
1761139679827847200,5.42384716796875,-0.10901976216733456,0.6274561915278435,0.3121254463402554
1761139679837906400,5.433906494140625,0.10696458320319652,0.7099990117885172,0.4161558757876977
1761139679847965200,5.443965087890625,0.3181342217683792,0.7411167652383446,0.4783672346267849
1761139679858024400,5.4540244140625,0.5502595546007156,0.6890751739643514,0.577897722306475
1761139679868083200,5.464083251953125,0.6400000312805175,0.6095017249032855,0.59287481708806
1761139679878143200,5.474143310546875,0.6828437322288751,0.6390548593848944,0.538532401525788
1761139679888202500,5.484202392578125,0.8228244498491287,0.5498837070256472,0.5207555199578404
1761139679898261200,5.49426123046875,0.955119873663783,0.5166213427625597,0.41155130460169165
1761139679908320500,5.504320556640625,1.130448968040943,0.5890380519367754,0.26201606523785737
1761139679918379300,5.514379150390625,1.2639508450359105,0.691734602431953,0.18370324722975492
1761139679928438500,5.5244384765625,1.3115963933080435,0.7263030808575451,0.14596118026934563
1761139679938497300,5.534497314453125,1.1501461866796017,0.8384140870384872,0.10136848022919148
1761139679948557300,5.544557373046875,0.7722516159534454,0.9543538577273487,-0.0072996920214965936
1761139679958616300,5.5546162109375,0.3763046711862087,1.0564110874056816,-0.12363843543268739
1761139679968675300,5.56467529296875,-0.14373159458637236,1.1651782630514353,-0.07824066608734428
1761139679978734300,5.574734375,-0.7396849788695573,1.2407897496789693,-0.026569296365231275
1761139679988793300,5.58479345703125,-1.2019599605470894,1.1959516600430011,0.014363346797414123
1761139679998852400,5.594852294921875,-1.4181149863094091,1.091848457620293,-0.028421865429356694
1761139680008911400,5.604911376953125,-1.4270499879151581,0.9986123939096927,-0.04085921260025352
1761139680018971400,5.614971435546875,-1.1878981174468994,0.8169002474319189,-0.011225158369541167
1761139680029030400,5.625030517578125,-0.7132716037183999,0.679681249609962,0.1142108280044049
1761139680039089400,5.63508935546875,-0.18096856156885624,0.621717501745373,0.2611320854775607
1761139680049148400,5.6451484375,0.2740244464069605,0.5482108053773641,0.32573687879182395
1761139680059207400,5.65520751953125,0.550133882394433,0.4191673690959811,0.28937499587712806
1761139680069266400,5.665266357421875,0.6369757150232791,0.2898408050242811,0.2169674746563658
1761139680079325400,5.675325439453125,0.7315203771144151,0.14923808304816483,0.25192343629589303
1761139680089384200,5.68538427734375,0.8616472247183322,0.0354036871407181,0.29739638976929705
1761139680099444500,5.695444580078125,0.9946154332280158,0.006342573959752917,0.28610965567193924
1761139680109503200,5.705503173828125,1.0814467444628477,-0.04146612898483872,0.3180394926896319
1761139680119562500,5.7155625,1.0946557701259851,-0.07247150810137391,0.4035701331220567
1761139680129621200,5.725621337890625,1.0261585724830626,-0.06809884597510099,0.38901151948086915
1761139680139679700,5.7356796875,0.8738064490675925,-0.05941080486774444,0.36441717645041644
1761139680149738800,5.74573876953125,0.7314560797065496,-0.08484152565710246,0.3152505195582285
1761139680159797800,5.7557978515625,0.6003460662841796,-0.11025091139748693,0.2744144869041629
1761139680169857800,5.76585791015625,0.4986515324383974,-0.10775390694998203,0.2519583249461837
1761139680179916800,5.775916748046875,0.4378150786817074,-0.12497275277636945,0.22672197595145552
1761139680189975800,5.785975830078125,0.394625925296545,-0.1532861893951893,0.17369857056587934
1761139680200034800,5.796034912109375,0.4213035043418407,-0.19506204191632567,0.11418534650327637
1761139680210093800,5.80609375,0.4678782085120678,-0.23724355262890456,0.06271232149801216
1761139680220152800,5.81615283203125,0.544068883267045,-0.25111601063683625,0.03902517470666207
1761139680230211800,5.8262119140625,0.6383984413027763,-0.2541885134173557,-0.041411512720771135
1761139680240270800,5.836270751953125,0.6873100639879703,-0.2968008532952517,-0.15044742230530828
1761139680250330600,5.84633056640625,0.6674445030450821,-0.37197639619093387,-0.1628222073676996
1761139680260390000,5.856389892578125,0.6319044031083584,-0.4364664770843461,-0.20052365005677564
1761139680270448600,5.86644873046875,0.5540121851325035,-0.4912256202213466,-0.22811713837059214
1761139680280508000,5.8765078125,0.5212830509632825,-0.5257964002018795,-0.2415646124321036
1761139680290566700,5.886566650390625,0.5079629661411047,-0.544176325696893,-0.28117437296053394
1761139680300626000,5.8966259765625,0.4902618897557258,-0.5815001672452316,-0.2781340736828744
1761139680310684700,5.9066845703125,0.3887222542107105,-0.6217118757221848,-0.22418407323798165
1761139680320743700,5.91674365234375,0.2983838116377592,-0.6521301756657659,-0.16605116108525544
1761139680330804000,5.926803955078125,0.22345862677395342,-0.6812395849678665,-0.15405560286510736
1761139680340862700,5.93686279296875,0.14005436737835406,-0.704809407256171,-0.11384646993773058
1761139680350922000,5.946921875,0.006903788039088248,-0.6905898163110017,-0.10153072158619761
1761139680360980700,5.956980712890625,-0.16340426330566404,-0.6615740035764872,-0.09355150460163131
1761139680371039700,5.967039794921875,-0.38340368953645226,-0.6687220487002283,-0.11781816831398755
1761139680381098800,5.9770986328125,-0.5637526579022407,-0.6482321453139186,-0.11848879758454858
1761139680391157800,5.98715771484375,-0.6911240693181753,-0.647047027182579,-0.16336995917726307
1761139680401217800,5.9972177734375,-0.7923001322478056,-0.6881233531322329,-0.2277115715106949
1761139680411276800,6.00727685546875,-0.8186568087756634,-0.694760891450569,-0.27867453723512586
1761139680421335800,6.017335693359375,-0.8625316063374281,-0.6524325926784426,-0.4013462465275079
1761139680431394800,6.027394775390625,-0.9766203423321247,-0.6571225771255791,-0.5112384076151997
1761139680441453600,6.03745361328125,-1.0898667822837829,-0.679899203209579,-0.581230702654086
1761139680451512800,6.047512939453125,-1.1138573142021895,-0.6587642068527638,-0.6417922484595329
1761139680461571600,6.057571533203125,-1.0846586922466754,-0.6491486025717109,-0.6866380099453031
1761139680471630800,6.067630859375,-1.0359481450915335,-0.6229569804124534,-0.7107949114065617
1761139680481690600,6.077690673828125,-1.0091969162881373,-0.6077150972148403,-0.6956877970371395
1761139680491750000,6.08775,-0.9725713592022657,-0.5552850546125322,-0.5913146185666323
1761139680501808600,6.09780859375,-0.9443711006343364,-0.4963868389094248,-0.43039216213934123
1761139680511867600,6.10786767578125,-0.7694564322769641,-0.5215870754111558,-0.32289917114786804
1761139680521926700,6.1179267578125,-0.34140812985002994,-0.7227828708421439,-0.23451555243711916
1761139680531985700,6.127985595703125,0.07840367462933064,-0.7924082687973976,-0.14267907159244642
1761139680542044700,6.138044677734375,0.28183248980939385,-0.7288539343841374,-0.12461909876680001
1761139680552103700,6.148103759765625,0.36801030557155606,-0.830198924139887,0.006366320161521434
1761139680562163700,6.158163818359375,0.5507651660352945,-1.0316535166375338,0.23080825888440012
1761139680572222700,6.16822265625,0.6132745214402675,-0.9693398299351333,0.44971682113856076
1761139680582281700,6.17828173828125,0.38795886862277984,-0.5763529040172696,0.8319779895763844
1761139680592340700,6.1883408203125,-0.12949264135360716,-0.1742701599087566,1.2307030938200652
1761139680602399700,6.198399658203125,-0.8109329365253448,0.09699377227630465,1.377885705643147
1761139680612458800,6.208458740234375,-1.357355104920268,0.3139838971558958,1.1249975707672535
1761139680622517800,6.218517822265625,-1.8417384580314158,0.7036480353266,0.5405073913931846
1761139680632576800,6.22857666015625,-2.1496499764710664,0.9976931601729243,0.12199070475827901
1761139680642636800,6.23863671875,-2.4288538713425396,1.2895308381028472,-0.17458492494635283
1761139680652695600,6.248695556640625,-2.510613870662451,1.3335139183446765,-0.20104458692464977
1761139680662754800,6.2587548828125,-2.3940426702022553,1.339368781852722,-0.04782368131801486
1761139680672813600,6.2688134765625,-2.0634850201904773,1.039690546490252,0.10683898406215012
1761139680682872800,6.278872802734375,-1.6962269942909478,0.7620250401671975,0.3705933078020811
1761139680692931600,6.288931640625,-1.1326093609452248,0.6119910209683701,0.6129185476094484
1761139680702990800,6.298990966796875,-0.377094944781065,0.5895009567407891,0.6913028599511831
1761139680713051000,6.30905078125,0.3282692468136549,0.6071248397041111,0.7074326684318483
1761139680723109600,6.319109619140625,0.8674725698709488,0.6726622376933693,0.8553145145654678
1761139680733169000,6.3291689453125,1.0832920800685881,0.8578706287890672,1.007356841379404
1761139680743227600,6.3392275390625,1.072300145933032,1.1204041054971516,1.175160070296377
1761139680753287000,6.349286865234375,0.8937363074183463,1.250550826845318,1.322950292623788
1761139680763345700,6.359345703125,0.7938847710907458,1.2198267488881944,1.5050594025298951
1761139680773405000,6.369405029296875,0.784566907647252,1.110847830187902,1.601607513397932
1761139680783463700,6.379463623046875,0.7802847002834081,1.1021830968908966,1.592890246196091
1761139680793523700,6.389523681640625,0.7636889547914266,1.0387284234598277,1.5317749754980206
1761139680803582700,6.399582763671875,0.8304086213678121,0.9542387799803167,1.3734952155992388
1761139680813641700,6.409641845703125,0.8258499351501465,0.9385730818800627,1.245857554462552
1761139680823700700,6.41970068359375,0.6398749435961246,1.0021003090906888,1.1684529008079318
1761139680833759700,6.429759765625,0.33403204812407494,1.0593894456293433,1.040378894080594
1761139680843818800,6.43981884765625,0.12884089944660662,1.0986183901466429,0.8742614262934774
1761139680853877800,6.449877685546875,0.21419921551942825,1.121108162113279,0.6894794439163059
1761139680863936800,6.459936767578125,0.4702151270270347,1.1078636998105793,0.5101962781511247
1761139680873996800,6.469996826171875,0.6972030969709158,1.078239692049846,0.3469414332535118
1761139680884055800,6.480055908203125,0.9259779503315687,1.0183761749785394,0.11105214477777481
1761139680894114800,6.49011474609375,1.2232400644630192,0.895892900930345,-0.05658303409591317
1761139680904173800,6.500173828125,1.627605293485522,0.8487210345845669,-0.10333777100816369
1761139680914232800,6.51023291015625,2.0027076031446454,0.6845373113390057,-0.051825756566226476
1761139680924291800,6.520291748046875,2.306664831000566,0.5502819125629961,-0.039702480313181875
1761139680934350800,6.530350830078125,2.528546417716145,0.5082394449949265,0.010394698894768952
1761139680944409900,6.540409912109375,2.594253692379594,0.5269074667163193,0.1894874566543847
1761139680954469600,6.5504697265625,2.490458386862278,0.46257140734083946,0.24182583891786633
1761139680964529000,6.56052880859375,2.368188097977638,0.3002026245627552,0.25277597973830995
1761139680974587600,6.570587646484375,2.296038223046064,0.13403642226308585,0.3089366967689246
1761139680984647000,6.58064697265625,2.2618606436342,0.010158478986099362,0.34266689773947
1761139680994705700,6.59070556640625,2.1295190425902604,-0.07543956412672996,0.41348610858917234
1761139681004764700,6.6007646484375,1.9232213939756153,-0.11697642026022076,0.5233562039755284
1761139681014823700,6.61082373046875,1.6946657363235949,-0.1617843339536339,0.6598419190868735
1761139681024882700,6.620882568359375,1.4024497996658085,-0.22081921818107364,0.8372756575930863
1761139681034943000,6.63094287109375,1.023487307447195,-0.269731644583866,0.9449229623634368
1761139681045001700,6.641001708984375,0.5391466244339943,-0.31954964152425525,1.0715244853854178
1761139681055060700,6.651060791015625,-0.019361118552088736,-0.3760849640209228,1.0741878593757748
1761139681065119700,6.66111962890625,-0.5603454798072576,-0.3835197171315551,1.0163076250761747
1761139681075178800,6.6711787109375,-1.0714186869233846,-0.5187248909130692,0.9890656901463866
1761139681085237800,6.68123779296875,-1.4212322415471077,-0.7488159414388239,0.9163292474985122
1761139681095296800,6.691296875,-1.6090443854004144,-0.9041933309596032,0.8945634058922529
1761139681105355800,6.701355712890625,-1.5246733267992734,-1.000987890869379,0.7958692229062319
1761139681115415800,6.711415771484375,-1.227858371913433,-1.0337186324737966,0.6222109843507408
1761139681125474800,6.721474853515625,-0.7813508682101965,-1.0888741179846226,0.4575887966226786
1761139681135533800,6.731533935546875,-0.3523503796249628,-1.130564045787975,0.3808432644639164
1761139681145592600,6.741592529296875,0.00891629690527916,-1.1690271204993128,0.2525892980597913
1761139681155651800,6.75165185546875,0.1535293505012989,-1.1296866053663193,0.02868877273723483
1761139681165710600,6.761710693359375,0.09524842644631862,-1.1363849339611827,-0.19219693480879066
1761139681175769900,6.771769775390625,-0.0050683893054723735,-1.279388652664423,-0.2551769764654338
1761139681185828600,6.78182861328125,-0.17626257583498953,-1.290635584474355,-0.36521855596117675
1761139681195888600,6.791888671875,-0.24348726932406425,-1.3425742998957633,-0.518672503138706
1761139681205947600,6.80194775390625,-0.3040162645667791,-1.3388761760301888,-0.677909198436141
1761139681216006700,6.812006591796875,-0.5059989725917577,-1.2510625757597387,-0.6821769388832152
1761139681226066000,6.82206591796875,-0.6991834571331739,-1.1939828441880642,-0.7001558092966675
1761139681236124700,6.832124755859375,-0.9250462224394083,-1.0283622200071811,-0.7997083626776933
1761139681246184000,6.842183837890625,-1.2304197468340397,-0.9267882438011467,-0.9740664931308477
1761139681256242700,6.85224267578125,-1.5726438692420721,-0.9406672776803374,-1.0567391503162682
1761139681266302000,6.862302001953125,-1.666613946315646,-0.9483248066961765,-1.035916727039963
1761139681276361700,6.87236181640625,-1.6609323935478926,-0.9170457252047955,-0.9275843626148998
1761139681286420700,6.882420654296875,-1.6940321145951747,-0.8246065109603107,-0.7974933900419622
1761139681296479700,6.892479736328125,-1.7238684499323367,-0.6980415936216712,-0.7838990913882851
1761139681306538800,6.902538818359375,-1.7571324216306208,-0.597087722075358,-0.8142194108501076
1761139681316597800,6.91259765625,-1.5661521691352127,-0.6042477864304557,-0.8531652275770902
1761139681326656800,6.92265673828125,-1.169780276954174,-0.6892031111929565,-0.9026338996231555
1761139681336715800,6.9327158203125,-0.6777069538623094,-0.7241320204287767,-0.8898221296492963
1761139681346774800,6.94277490234375,-0.3672890055596828,-0.7096006601206958,-0.8514891841236502
1761139681356834600,6.95283447265625,-0.2889981436550617,-0.6538771654635668,-0.909999021563679
1761139681366893800,6.962893798828125,-0.28768180035948754,-0.6813426069509237,-1.0686908693946897
1761139681376952600,6.97295263671875,-0.14089783246517182,-0.822968388364464,-1.1379022066563367
1761139681387011800,6.98301171875,-0.020579846692085266,-0.9504812540777027,-1.1416808484122156
1761139681397070600,6.993070556640625,-0.15097732793092727,-0.7689720828261226,-0.9863068929575383
1761139681407129900,7.0031298828125,-0.6481932746082544,-0.15611032517151907,-0.6356107102803885
1761139681417188600,7.013188720703125,-1.6364929488182067,0.5207936234785243,-0.34989816416725517
1761139681427247900,7.023247802734375,-3.0494308247506616,0.7652231055561453,-0.38573622413724656
1761139681437308000,7.033307861328125,-3.8126977547377345,0.822743128241226,-0.33602227209322155
1761139681447366700,7.04336669921875,-4.014963955879211,0.9170418527472763,-0.2525845488194376
1761139681457426000,7.053426025390625,-3.961524042114615,0.9973430315610021,-0.2553114165000617
1761139681467484700,7.063484619140625,-3.663274085989594,1.0957626353893428,-0.2487560765724629
1761139681477544000,7.0735439453125,-3.0704174986779686,1.0839783818323165,-0.1155083935342729
1761139681487602700,7.083602783203125,-2.166692881208658,0.9723116853527725,0.1758729189302772
1761139681497662000,7.093661865234375,-1.0110340685874224,0.9194079242914914,0.4736449553452432
1761139681507720700,7.103720703125,0.14547522338330746,0.9430988156761974,0.6849562674034386
1761139681517780700,7.11378076171875,1.1212158602714537,0.9326660497933625,0.8740932301197201
1761139681527839700,7.12383984375,1.8484230503618717,0.9924890887238085,0.9653796941325068
1761139681537898800,7.133898681640625,2.30885912617445,0.9055634502690285,0.9644281655613333
1761139681547957800,7.143957763671875,2.613673847642541,0.7742869211733341,0.8845464542686938
1761139681558016800,7.154016845703125,2.808188119482994,0.7176042260952293,0.819098561193794
1761139681568075800,7.16407568359375,2.8849481185585257,0.6477293103583157,0.6973611370768398
1761139681578134800,7.174134765625,2.8729513912945985,0.7167046469070016,0.6033817441856488
1761139681588193500,7.184193603515625,2.7996242892771956,0.6824312789704651,0.5534843983987346
1761139681598253800,7.19425390625,2.664465292724967,0.6506750084213913,0.5318449231185018
1761139681608312800,7.204312744140625,2.468824062681198,0.720181236976385,0.43640002425201235
1761139681618371800,7.214371826171875,2.1973422864943744,0.9027688511144369,0.3468788528786972
1761139681628430800,7.224430908203125,1.8479454959779977,1.1938234158426522,0.34572613917961714
1761139681638489600,7.234489501953125,1.3085475271314382,1.4631988673999905,0.4439383108023554
1761139681648548900,7.244548828125,0.5919371343791484,1.7017796599820256,0.6107093105947599
1761139681658607600,7.254607666015625,-0.05696516528129577,1.8844990107409656,0.7591165323093533
1761139681668667000,7.2646669921875,-0.5291700048208237,1.975907420632988,0.9070927787281572
1761139681678725600,7.2747255859375,-0.9020932168751955,2.068823897000402,0.9683032534290105
1761139681688785700,7.28478564453125,-1.295580493530631,2.058044144310802,0.9778366593193262
1761139681698844700,7.2948447265625,-1.5611895782917737,1.9455710268191992,1.0264606241695582
1761139681708903700,7.304903564453125,-1.5995675320029257,1.862360244169086,1.0973702897816895
1761139681718962700,7.314962646484375,-1.4509832366883755,1.7861178392268717,1.158551392257586
1761139681729021700,7.325021728515625,-1.1457792236417532,1.7434167616195975,1.23024658222422
1761139681739080700,7.335080810546875,-0.6995633963614701,1.6461016119018197,1.3132144960291683
1761139681749139700,7.3451396484375,-0.17774784595668314,1.5119683051355182,1.3336255620256066
1761139681759198700,7.35519873046875,0.4597989469528198,1.4031217075780034,1.4179668100103735
1761139681769258800,7.3652587890625,1.2045593293905257,1.3284810387440025,1.4540019999876617
1761139681779317800,7.37531787109375,1.8555477876752613,1.2665439302690327,1.3224408817969262
1761139681789376800,7.385376708984375,2.315425645083189,1.3310942899823188,1.1857986609496176
1761139681799435800,7.395435791015625,2.6882395515441893,1.2947913889795541,1.1296868976272643
1761139681809494800,7.405494873046875,3.029325609833002,1.0387279850684106,1.1207377944309265
1761139681819553800,7.4155537109375,3.3468168575227257,0.8628818810798228,1.1826305523075162
1761139681829612800,7.42561279296875,3.6119910579979417,0.7177179156027734,1.1772459366597234
1761139681839671800,7.435671875,3.677000998046994,0.6231399357639252,1.1122750134468078
1761139681849731600,7.445731689453125,3.599521452525258,0.6649721215821802,0.9789242353603244
1761139681859790800,7.455790771484375,3.423874378240108,0.6348806424401701,0.8900429327931254
1761139681869849600,7.465849609375,3.1840731039524077,0.40518531323373314,0.8051377673152834
1761139681879908900,7.475908935546875,2.9126906964868304,0.1862766048491001,0.7264429277196526
1761139681889967600,7.485967529296875,2.616648479539156,-0.03282667625956237,0.6992002621375024
1761139681900027000,7.49602685546875,2.255241517755389,-0.16523374375514685,0.6365579280026257
1761139681910085600,7.506085693359375,1.8108803784310816,-0.194730837200582,0.528128021487221
1761139681920145000,7.516144775390625,1.3627607633560894,-0.20786376542020588,0.42925563239008185
1761139681930205000,7.526204833984375,0.9992173740655184,-0.24364695339780298,0.2937475301392376
1761139681940263700,7.536263671875,0.7177320902585983,-0.3202885867906734,0.13101356731057165
1761139681950323000,7.546322998046875,0.5170815076202154,-0.33187289732880887,0.022714155307039616
1761139681960381700,7.556381591796875,0.2817459805697203,-0.3323731019359082,-0.06961210008226335
1761139681970441000,7.56644091796875,-0.022200141370296477,-0.33322741721030325,-0.17793430843949318
1761139681980499700,7.576499755859375,-0.45467327450215816,-0.30631661393102255,-0.30587898969873784
1761139681990559000,7.58655908203125,-0.9114736241608857,-0.3491242571853101,-0.45185741336382923
1761139682000617700,7.59661767578125,-1.444544143551588,-0.45280806515216826,-0.5043284820962697
1761139682010676700,7.6066767578125,-1.9242922380775211,-0.5845610891858115,-0.565301933170855
1761139682020736800,7.61673681640625,-2.334808390945196,-0.7909532476834953,-0.578679958725348
1761139682030795800,7.626795654296875,-2.5565116984844205,-0.9568540039800106,-0.5920377452094108
1761139682040854800,7.636854736328125,-2.6555992647022006,-1.0061562334179877,-0.6112371703937649
1761139682050913800,7.646913818359375,-2.647313666915893,-1.0021573730401694,-0.7063594862423836
1761139682060972800,7.656972900390625,-2.6003438259482383,-1.0133396421160548,-0.820338916643709
1761139682071031800,7.66703173828125,-2.550522102680802,-1.033328244916722,-0.963136079924181
1761139682081090800,7.6770908203125,-2.465256141066551,-1.0895579355303198,-1.0533074953671544
1761139682091149800,7.68714990234375,-2.30762753855288,-1.1376668635305016,-1.1911780889656394
1761139682101209600,7.697209716796875,-2.0795885982513425,-1.0902956021551042,-1.300996381099522
1761139682111268900,7.707268798828125,-1.8763035754561423,-1.2607276452057063,-1.428779003664851
1761139682121327600,7.71732763671875,-1.7557921129375695,-1.2890814869001508,-1.5606041796192527
1761139682131387000,7.727386962890625,-1.68505152028203,-1.2387372010633348,-1.677595797448605
1761139682141446000,7.73744580078125,-1.6039707353979349,-1.1402174978613853,-1.6927531807005405
1761139682151504600,7.747504638671875,-1.5056927319973705,-1.0867056148391216,-1.5829481133744119
1761139682161564000,7.75756396484375,-1.4300433245122433,-1.106396915193647,-1.4597282686799764
1761139682171622700,7.76762255859375,-1.3813643415391443,-1.111755227356404,-1.3159008125036955
1761139682181682000,7.777681884765625,-1.2298732188671826,-1.22010797698237,-1.2041967066232113
1761139682191742000,7.787741943359375,-0.919796631348133,-1.3107296934761106,-0.995516912112385
1761139682201800700,7.79780078125,-0.7108195343911647,-1.3051459019944072,-0.869158696326986
1761139682211860000,7.80785986328125,-0.6201350548595189,-1.2652183807536959,-0.7935859342746436
1761139682221918700,7.817918701171875,-0.6114899761110544,-1.2636138681665061,-0.729120330235362
1761139682231978000,7.82797802734375,-0.700861619478464,-1.1850535416707395,-0.6344213543653487
1761139682242036700,7.83803662109375,-0.811760619521141,-1.0069864736970513,-0.4191323708478361
1761139682252096000,7.848095947265625,-1.0196738866388797,-0.7513173298005015,-0.3439803914908319
1761139682262154800,7.85815478515625,-1.4820499906033278,-0.4995148712694645,-0.48398865470513697
1761139682272214800,7.86821484375,-2.2891163148283957,-0.1381048407457769,-0.5425038259074092
1761139682282273800,7.878273681640625,-3.381193758898973,0.33074162827655673,-0.47299401715584094
1761139682292332800,7.888332763671875,-4.456139450904726,0.7559223393779247,-0.3509024458389729
1761139682302391800,7.898391845703125,-5.296000960272551,1.184443008556962,-0.383281597526744
1761139682312450800,7.908450927734375,-6.112348907583952,1.1892292199201882,-0.4484689399693161
1761139682322509800,7.918509765625,-6.149898009255528,0.8667302270710467,-0.4156353225123137
1761139682332568800,7.92856884765625,-5.303633062586188,0.4487131970539689,-0.19181787236332892
1761139682342627800,7.9386279296875,-4.040792809140682,0.4192516863785684,0.3126658002946526
1761139682352686800,7.948686767578125,-2.791265041732788,0.14915756515786052,0.5393597557280212
1761139682362747000,7.958746826171875,-1.4329402149975299,-0.10609203815236687,0.3405208986867219
1761139682372806000,7.968805908203125,-0.3456248707622289,0.29190548246912656,0.2324653784416616
1761139682382865000,7.978864990234375,1.0365525407254694,0.9723075936995446,0.8920361524369567
1761139682392924000,7.988923828125,1.6369266640603541,1.0769842851612716,1.453675252251327
1761139682402983000,7.99898291015625,1.9205542205929755,0.8852766682393849,2.1030109748929737
1761139682413042000,8.0090419921875,1.9732786795645951,0.8237856960967183,2.470981532976031
1761139682423101000,8.019100830078125,1.6521850234687327,0.842930906875804,2.6082471464186905
1761139682433160000,8.029159912109375,1.22764034524858,1.1586488612826913,2.3012632642179724
1761139682443220000,8.039219970703124,1.4734487509965897,1.417903973907232,2.064449773569405
1761139682453278700,8.04927880859375,1.8909306512236594,1.4319744387052953,1.8029073537252842
1761139682463338000,8.059337890625,2.261150449538231,1.4143866134360432,1.50865435828194
1761139682473396700,8.069396728515626,2.587818690896034,1.4872741549924016,1.1093824338104574
1761139682483456000,8.0794560546875,2.9918022271245714,1.8314312912896273,0.7107515837214887
1761139682493514800,8.0895146484375,3.1438691038578748,2.150509808170795,0.3861192686380818
1761139682503574000,8.099573974609376,3.0747967366755007,2.1834448401756585,-0.12488248067703098
1761139682513632800,8.1096328125,2.9355016632318494,2.365969252884388,-0.251400453601405
1761139682523692800,8.11969287109375,2.7889994348883627,2.430258185182512,-0.24955427774544803
1761139682533751800,8.129751708984376,2.5651503474920987,2.127346959248185,-0.2725017668843269
1761139682543810800,8.139810791015625,2.3709850352197885,1.6690192538917064,-0.08955001387530938
1761139682553869800,8.149869873046875,2.4261370135992766,1.4434227383062244,-0.015464439907111226
1761139682563928800,8.1599287109375,2.6080548387169835,1.4534566410645842,-0.28317575764451175
1761139682573987800,8.16998779296875,2.8614269577175375,1.5001570174410939,-0.5108897768406198
1761139682584046800,8.180046875,3.120292997959256,1.4155708547845482,-0.5538995916035026
1761139682594105900,8.19010595703125,3.493258295589685,1.268080784447491,-0.532680899018608
1761139682604164900,8.200164794921875,3.3444366843879223,1.1079882029730825,-0.5473551383960992
1761139682614225000,8.210224853515625,3.088414343139529,0.7837584408085793,-0.40596776884831487
1761139682624284000,8.220283935546876,2.9379443802088496,0.6686660076640546,-0.1317947808161378
1761139682634343000,8.230343017578125,2.6810370728194712,0.5728470147881657,0.06940503320284187
1761139682644401700,8.240401611328124,2.4573417146801946,0.5996767156552523,0.4002485874839127
1761139682654461000,8.2504609375,2.2605729419112204,0.6109108610488474,0.5819374261513353
1761139682664519700,8.260519775390625,1.7536486711680888,0.5669421746585518,0.2757631798330694
1761139682674579000,8.270578857421874,1.703849159732461,0.4636054996289313,0.3083509327702224
1761139682684637700,8.2806376953125,1.7009224586308,0.323587445672974,0.42014176708608864
1761139682694697000,8.290697021484375,1.2087293085515498,0.2032887491222471,0.44609987275041635
1761139682704756700,8.3007568359375,1.1028642110228537,-0.06106193307563662,0.23389855304993687
1761139682714815700,8.310815673828126,0.8417799102097749,0.06344130249284208,0.3412397875458002
1761139682724874800,8.320874755859375,0.6923492271989583,0.018342443028837443,0.4608000868193805
1761139682734933800,8.330933837890624,0.5446779550760984,-0.38237675764150914,0.5922378708913922
1761139682744992800,8.34099267578125,0.5037614227980375,-0.7292685065343976,0.8111195451386273
1761139682755051800,8.3510517578125,0.39354748241007326,-1.0271097357280552,0.9067172234140336
1761139682765110800,8.36111083984375,0.19705285040736198,-1.3387711082205176,0.9733036189995705
1761139682775169800,8.371169677734375,0.12771043411195276,-1.501998407524079,0.8871880548186599
1761139682785229800,8.381229736328125,-0.02214987248778343,-1.4877087470173835,0.7698765573851764
1761139682795288800,8.391288818359374,-0.3227531137406826,-1.4159145536556839,0.5676550721682608
1761139682805347800,8.401347900390626,-0.6532470508664846,-1.5035422759652137,0.32201347435452043
1761139682815406800,8.41140673828125,-0.7836117988795042,-1.6059363363824783,0.2050334008324891
1761139682825465900,8.4214658203125,-0.8841922340035439,-1.9259205699317157,0.4498530147388577
1761139682835524900,8.43152490234375,-0.9200760328114033,-1.9644354478955268,0.5660221372041851
1761139682845584000,8.441583984375,-0.7342465872079134,-1.9050683360390364,0.377514996824041
1761139682855643000,8.451642822265624,-0.6225602361798286,-1.840717882812023,0.1387416042793542
1761139682865702000,8.461701904296875,-0.67914195510149,-1.6888227093838155,-0.13645736579969525
1761139682875761700,8.47176171875,-0.998550434589386,-1.5337950831487774,-0.288272532794252
1761139682885821000,8.481821044921874,-1.174802489030361,-1.3690056490950286,-0.43873014770001173
1761139682895879700,8.491879638671875,-1.3651952970266341,-1.1590989431377499,-0.7169156593091786
1761139682905939000,8.50193896484375,-1.6216145286381243,-0.9863904795877635,-0.7624035180907696
1761139682915997700,8.511997802734374,-1.6370184339970348,-0.9243154970120638,-0.4319317927967757
1761139682926057000,8.522056884765625,-1.5339298154443501,-0.9197934164777397,-0.04829604807011783
1761139682936115700,8.53211572265625,-1.3742881195425987,-0.8793355146873741,0.20754808706715702
1761139682946175000,8.542175048828126,-1.1383557956427335,-0.7070455688104033,0.3719799398548901
1761139682956233700,8.552233642578125,-0.9144131847441196,-0.6059829396599903,0.42945531968064604
1761139682966293800,8.562293701171875,-0.6992559378474951,-0.5495758831854909,0.3881863937683403
1761139682976353000,8.57235302734375,-0.5728641851186752,-0.43824988990239794,0.28551095912642777
1761139682986411800,8.582411865234375,-0.49224400348365305,-0.34592728777490556,0.08808401470966637
1761139682996471000,8.592470947265625,-0.3660954118609428,-0.3025510873850435,-0.010955328452214598
1761139683006529800,8.60252978515625,-0.2890916671574116,-0.3778079884212464,-0.04950235511995852
1761139683016588800,8.6125888671875,-0.10183540362119674,-0.46860769183039663,-0.05511851450130343
1761139683026647800,8.622647705078125,-0.0638829818457365,-0.5319556900165975,-0.0130332672374323
1761139683036706800,8.632706787109376,-0.2246668335199356,-0.5345043515861034,-0.011901304065436123
1761139683046765800,8.642765869140625,-0.41817981936335563,-0.32344336102716625,-0.023922654313966632
1761139683056825900,8.652825927734375,-0.6114022978276014,-0.1373596484016627,-0.1821701559109613
1761139683066884900,8.662884765625,-0.8392921850472688,0.007189107786491513,-0.308506050266698
1761139683076944000,8.67294384765625,-1.0493430487155915,0.2234408719215542,-0.2988541142969392
1761139683087003000,8.6830029296875,-1.3337234694421292,0.43286395908035336,0.12405434102350846
1761139683097062000,8.693061767578126,-1.7989783437132834,0.7781007073078304,0.16506169339017943
1761139683107120600,8.70312060546875,-2.2164725189000367,1.1263779922749846,0.24354917384544386
1761139683117180000,8.713179931640624,-2.4877234089404343,1.2397360028423368,0.40854865218698977
1761139683127238700,8.72323876953125,-2.5419816533505917,1.1170710155516863,0.5947576716925949
1761139683137298200,8.733298095703125,-2.224851055666804,1.0224394058294595,0.844177180609852
1761139683147358200,8.743358154296875,-1.7164847694218157,1.0369057380773126,1.0286347533382474
1761139683157417000,8.7534169921875,-1.1529583214908838,1.080306342256069,1.093128049102053
1761139683167476200,8.763476318359375,-0.6469353835016489,1.0109790504645555,1.0683460014797745
1761139683177535000,8.773534912109374,-0.08883914392590522,0.9191504423990845,1.0523173883512615
1761139683187594200,8.78359423828125,0.24869243675172328,0.8994743396136909,1.1745303210254758
1761139683197653000,8.793653076171875,0.46585108659863467,0.9142941614743322,1.204369140580669
1761139683207712300,8.803712158203124,0.7202221535086631,0.8949307048346847,1.1992639994613825
1761139683217771000,8.81377099609375,1.1009884802788494,0.8562716691598296,1.1225653021190314
1761139683227830300,8.823830322265625,1.5003145460903644,0.8046580940395593,0.9538118598051368
1761139683237890300,8.833890380859375,1.8590666094511745,0.7585979152627289,0.7598765568964183
1761139683247949000,8.843948974609376,2.064808962270617,0.7162169364552945,0.6428054440900683
1761139683258008300,8.85400830078125,2.0292560028523208,0.6429330159924924,0.6072818203641102
1761139683268067000,8.864067138671874,2.1183219412714243,0.5598533123761416,0.6101084951573983
1761139683278126300,8.874126220703126,2.155918973737955,0.5434300739068537,0.6368269542023539
1761139683288185000,8.88418505859375,2.0120961937367916,0.5514339321423322,0.589889408069104
1761139683298244400,8.894244384765624,1.7412468702346084,0.5418887262163683,0.49948988295868035
1761139683308303000,8.90430322265625,1.3689280538141726,0.5781354035198688,0.5220831883650273
1761139683318363100,8.914363037109375,1.17195119125247,0.6148369484513998,0.4090001222815364
1761139683328422100,8.924422119140624,0.9739297880738973,0.6718687492281198,0.6173414786182344
1761139683338481200,8.934481201171875,0.6883154416382312,1.0347868462271987,0.7548535411026328
1761139683348540200,8.9445400390625,0.3567150045752525,1.4257377362728119,0.7401441208139061
1761139683358599200,8.95459912109375,0.0013648586124181746,1.4890738978907465,0.7352030842151492
1761139683368658200,8.964658203125,-0.4755944819778204,1.3253832188591361,0.6880993146695196
1761139683378717200,8.97471728515625,-0.969586790433526,1.0216378801882267,0.6496838054269551
1761139683388776000,8.98477587890625,-1.174028582048416,0.8413998248510062,0.5129354938566685
1761139683398835200,8.994835205078125,-0.942385479775071,0.7295492231719195,0.5441114802997559
1761139683408895000,9.00489501953125,-0.5014806183844804,0.5379456511463969,0.6213615279145538
1761139683418954200,9.014954345703124,-0.0790495713174343,0.3824937350846827,0.693384634661302
1761139683429013000,9.025012939453125,0.34495267058908935,0.2555556005194783,0.7742747192788869
1761139683439072300,9.035072265625,0.6577870323836803,0.02899455988393165,0.7531292015280574
1761139683449131300,9.04513134765625,0.7980524121642112,-0.16540106314606964,0.6607935207232832
1761139683459190000,9.05518994140625,0.8788292456656693,-0.30861601344719525,0.6456554997589439
1761139683469249300,9.065249267578125,0.8831979622691869,-0.3763745215520263,0.609847104274854
1761139683479308000,9.07530810546875,0.7404150467097759,-0.3104074999738484,0.4830456747666001
1761139683489367300,9.0853671875,0.49218262868523593,-0.1943966733427718,0.24402174152694642
1761139683499427000,9.095427001953125,0.16123334900736808,-0.20660298823677004,0.03799567639529705
1761139683509486000,9.105486083984376,-0.09938684142529963,-0.2944096473097801,-0.009855258255824445
1761139683519545000,9.115545166015625,-0.28200492376685143,-0.36050858817193654,-0.07807290830500424
1761139683529604000,9.12560400390625,-0.3003215017020702,-0.36657625418044626,-0.11570742323771119
1761139683539663000,9.1356630859375,-0.211198864659667,-0.3229936444982886,-0.08654584535695611
1761139683549722000,9.14572216796875,0.00220423204600811,-0.3237747118733823,-0.0019336714763194321
1761139683559781000,9.155781005859374,0.23969196869432924,-0.31085783755723384,-0.07241846273988485
1761139683569840000,9.165840087890626,0.3495563649922609,-0.29540238467417657,-0.22063209811113774
1761139683579899100,9.175899169921875,0.3481833230733871,-0.3345622460106388,-0.4226671208452433
1761139683589958100,9.185958251953124,0.4386947841256857,-0.3313553031954914,-0.5090101371064781
1761139683600018000,9.196017822265626,0.5137561625897884,-0.4065754889504984,-0.5261530681524426
1761139683610077200,9.2060771484375,0.5124181919842958,-0.5165766268379987,-0.5863612339429557
1761139683620136000,9.216135986328124,0.5250000256597995,-0.4773019800154492,-0.6887075096957385
1761139683630195200,9.2261953125,0.5054261411398648,-0.39855307214502245,-0.7017918860659003
1761139683640254000,9.23625390625,0.4907546417087316,-0.35661055782008916,-0.7284139355316758
1761139683650313200,9.246313232421874,0.29222411996424197,-0.3629829789288342,-0.6977187183428555
1761139683660372000,9.2563720703125,-0.16839724928736685,-0.36575339349023994,-0.6676289197012781
1761139683670431200,9.26643115234375,-0.5048293442904949,-0.2861993067167699,-0.5876807190436869
1761139683680490000,9.276489990234374,-0.626181349286437,-0.2029512607961893,-0.5690060483857989
1761139683690550000,9.286550048828126,-0.6384919648051262,-0.19404373171925543,-0.598103182728216
1761139683700609300,9.296609375,-0.5554769969880581,-0.18505042405501007,-0.7190405425086617
1761139683710668000,9.30666796875,-0.43424248089194295,-0.2063949715092778,-0.7032651734888553
1761139683720727300,9.316727294921876,-0.28233810124397274,-0.3164139373144135,-0.6708074036069214
1761139683730786000,9.3267861328125,-0.0622621026456356,-0.3491344497857615,-0.599085690959543
1761139683740845300,9.33684521484375,0.18380933795273302,-0.40485783484503624,-0.683141400001198
1761139683750904000,9.346904052734375,0.33805940394401546,-0.4787925473667681,-0.7505167540073394
1761139683760963300,9.35696337890625,0.36244448813796043,-0.5167523487310857,-0.7981548496253787
1761139683771022000,9.36702197265625,0.24817162774801252,-0.5803128936894237,-0.8408988895915448
1761139683781082000,9.37708203125,0.03756546828448772,-0.7082509260121732,-0.8939072800710797
1761139683791141000,9.38714111328125,-0.18467676843702793,-0.7996752641256898,-1.0136628096558153
1761139683801200000,9.3972001953125,-0.30969489472508427,-0.7686452620245516,-1.1407242783397435
1761139683811259100,9.407259033203125,-0.37488486751616,-0.6781867002032697,-1.1887348605319856
1761139683821318100,9.417318115234375,-0.3264952228784561,-0.5873329285193234,-1.1643711113870143
1761139683831377200,9.427377197265624,-0.23832827912569043,-0.5011596428018062,-1.046511478551477
1761139683841436200,9.437436279296875,-0.24856618002355096,-0.40791700321994717,-0.8051803643479942
1761139683851495000,9.447494873046875,-0.289790170815587,-0.32729784449823196,-0.5636974205836653
1761139683861554200,9.45755419921875,-0.37678514817953107,-0.2326531560987234,-0.40826121354773637
1761139683871614200,9.4676142578125,-0.4315571873307228,-0.2610095550764352,-0.3269569951713085
1761139683881673200,9.477673095703125,-0.3132914579123258,-0.38683107016924767,-0.19606632358804343
1761139683891732200,9.487732177734374,-0.29499241563379763,-0.3980705858577043,-0.06463131599500775
1761139683901791000,9.497791015625,-0.38669863942861554,-0.29953104544412346,0.07704217701777816
1761139683911850200,9.507850341796875,-0.4214274229824543,-0.22337957018837332,0.23000037656761704
1761139683921909000,9.517908935546876,-0.4110638498783111,-0.223562452474609,0.3917480317726731
1761139683931968300,9.52796826171875,-0.5620207195430994,-0.07389770497959107,0.6113697107322513
1761139683942027000,9.538027099609375,-0.9851567000091075,0.22517372359614818,0.7886636754415929
1761139683952086300,9.548086181640626,-1.4518950908362864,0.6736312288559972,0.9614684389729052
1761139683962146000,9.55814599609375,-1.9540566772222518,1.1894661704812197,0.9963143461003899
1761139683972205000,9.568205078125,-2.357048864325881,1.4210412490196525,0.8535944127745926
1761139683982264000,9.57826416015625,-2.4459008677333594,1.1318838231496513,0.7155285157997161
1761139683992323000,9.588322998046875,-2.036758341306448,0.630605668534711,0.8317159045740962
1761139684002382000,9.598382080078125,-1.346715052962303,0.2966906343864277,1.0992085380595176
1761139684012441000,9.608441162109376,-0.4970213008880615,0.22343783971425143,1.3488140710681675
1761139684022500000,9.6185,0.2080050370544195,0.40320889859423037,1.5989602137595413
1761139684032559000,9.62855908203125,0.5041664964675903,0.5166357366140931,1.810004033987969
1761139684042618000,9.6386181640625,0.5682862096786498,0.6739843531426042,1.8979365844629703
1761139684052677000,9.648677001953125,0.35717210069298744,0.8087682327721267,2.0072060836076737
1761139684062737200,9.658737060546875,-0.05072773219645023,0.9987434729434549,2.0682433206334707
1761139684072796200,9.668796142578126,-0.521256162956357,1.2284525384142995,1.9468565365850925
1761139684082855200,9.678855224609375,-1.0413567261368035,1.4114561129420995,1.7163719566971063
1761139684092914200,9.6889140625,-1.747338757368922,1.5033441230446098,1.4674636852376162
1761139684102973200,9.69897314453125,-2.149226782622933,1.4002730401486156,1.2559540010631083
1761139684113032200,9.7090322265625,-2.108385069146752,1.2961433881103992,1.2085069710377603
1761139684123091200,9.71909130859375,-1.8376736928105353,1.1261563854135572,1.2256758402425796
1761139684133150200,9.729150146484375,-1.2935036872565746,0.8499419546816498,1.2282182912670074
1761139684143209500,9.73920947265625,-0.47358255763351914,0.6213720493085682,1.256294923455268
1761139684153269500,9.74926953125,0.4165373128533363,0.37877778330147266,1.213327669192478
1761139684163328500,9.75932861328125,1.2343605934143065,0.20849831873038782,1.1061595993064344
1761139684173387500,9.769387451171875,1.7674504020273685,0.12099268843056633,1.0581916872121393
1761139684183446500,9.779446533203124,1.9829016634345054,0.008844190650293604,1.130232037354633
1761139684193505500,9.789505615234376,1.9965292067706584,-0.1748506997430697,1.138357330012694
1761139684203564300,9.799564208984375,1.9111708906978369,-0.22005090068969874,0.9997861138641834
1761139684213623600,9.80962353515625,1.7742051369845866,-0.15416512765418738,0.9254926510326563
1761139684223682300,9.819682373046875,1.5712836868047713,-0.17433997374195603,0.8458768241345882
1761139684233741600,9.829741455078125,1.3972463858038187,-0.1858938160765916,0.8748673562973737
1761139684243800300,9.83980029296875,1.2670827133208513,-0.17657595263309775,1.0213428427644073
1761139684253860400,9.8498603515625,1.2574158903092145,-0.10457542304433881,1.1742782459605485
1761139684263919400,9.85991943359375,1.1832453232049942,-0.07497463176241144,1.2341503116644919
1761139684273978400,9.869978271484374,1.0160229629158972,-0.044045167426299305,1.1342458030406386
1761139684284037400,9.880037353515625,0.8569821555167436,-0.009177651255205274,1.078275055624172
1761139684294096400,9.890096435546875,0.7620633994162083,0.06905308709316886,1.0963567288249731
1761139684304155400,9.9001552734375,0.5735241103321314,0.14496977634551003,1.0780644085481763
1761139684314214400,9.91021435546875,0.27993922340869903,0.1723631572436541,1.0298808809418232
1761139684324273400,9.9202734375,0.041025253349542615,0.17251542519591748,0.9960006039761006
1761139684334332400,9.93033251953125,-0.07495791808962822,0.08620680439462884,0.9676195089485495
1761139684344392400,9.940392333984375,-0.21416063707470892,-0.0012920491045340895,1.0401748959410935
1761139684354451500,9.950451416015625,-0.3286392491698265,-0.16249018066804854,1.1418334086254238
1761139684364510500,9.960510498046874,-0.3081879972934723,-0.2797682507559657,1.1299271361239254
1761139684374569500,9.970569580078125,-0.13450550107955933,-0.34017376574948427,1.1082678236320613
1761139684384628500,9.98062841796875,0.03888590323328971,-0.4355273330707103,1.1327302839111537
1761139684394687500,9.9906875,0.1402975284844637,-0.5382376198302954,1.104187787776813
1761139684404746500,10.00074658203125,0.1719458816796541,-0.57353127072528,1.0339262108098715
1761139684414805500,10.010805419921875,0.22581483451128004,-0.5918704623511061,0.9267849558655172
1761139684424864500,10.020864501953126,0.32459552673697467,-0.5969053512457758,0.8159981109604239
1761139684434923500,10.030923583984375,0.493514169549942,-0.5744440747212618,0.7256129066362976
1761139684444983600,10.040983642578125,0.6210404792666435,-0.5889308652352542,0.7033920147389173
1761139684455042300,10.051042236328126,0.7629998034834862,-0.6007873803108931,0.7078836270697414
1761139684465101600,10.0611015625,0.9248808027446269,-0.6022710795300081,0.6916097339432686
1761139684475160300,10.071160400390625,1.046270217141509,-0.5493114600956439,0.7170678541962057
1761139684485219600,10.081219482421876,1.0657131687581538,-0.3754429032577202,0.7438596342056989
1761139684495278300,10.0912783203125,0.9042769906550645,-0.16778770255427808,0.7397760181538761
1761139684505337600,10.101337646484374,0.7444593536645173,0.018602664867602287,0.6932746714808047
1761139684515396400,10.111396240234376,0.5843424414664506,0.11449450378399341,0.6569546001475304
1761139684525455400,10.121455322265625,0.43563188942372794,0.06688965284842997,0.6404664797484875
1761139684535515600,10.131515625,0.23312778787314892,-0.11359802986830472,0.7901642161976545
1761139684545574400,10.141574462890626,0.11938508883714676,-0.25526213399823755,0.9619957507826388
1761139684555633700,10.151633544921875,0.026136311775445936,-0.3470753252988681,0.9600426439534873
1761139684565692400,10.1616923828125,0.07927402772307396,-0.28568711941093206,0.8879203876812011
1761139684575751400,10.17175146484375,0.16812603113055227,-0.2520775126127526,0.9056968673903495
1761139684585810400,10.181810546875,0.21818565480709073,-0.23625114405807107,0.8424109015896916
1761139684595869400,10.191869384765624,0.3507295004248619,-0.21325945045128464,0.6681419107247144
1761139684605928400,10.201928466796875,0.42525078066289423,-0.12237089971490203,0.4771626811426133
1761139684615987500,10.211987548828125,0.3530558975458145,-0.18808358120582996,0.4407156954940408
1761139684626046500,10.22204638671875,0.2004156048387289,-0.32984073391407726,0.44930093381404873
1761139684636106500,10.2321064453125,0.0033411271214485168,-0.493506899558939,0.44812768878359344
1761139684646165200,10.242165283203125,-0.04108429006040096,-0.6204740775555372,0.3255785464249551
1761139684656224500,10.252224609375,0.27894495167434213,-0.7633437946155667,0.1929643937836401
1761139684666283300,10.262283203125,0.7758522707939147,-0.9693854226425289,0.07017510425988584
1761139684676342500,10.272342529296875,1.1388187369793652,-0.9838850726380943,0.03388356490135193
1761139684686401300,10.2824013671875,1.401288939192891,-0.9630531508810818,0.028992066532745955
1761139684696460500,10.29246044921875,1.435739490327239,-1.1002565127424895,-0.02914944905154407
1761139684706519300,10.302519287109375,1.4736112480819223,-0.9633699617452919,0.19724895750135182
1761139684716578600,10.31257861328125,1.1308598869293927,-0.41897765521015967,0.2851993358939886
1761139684726637300,10.32263720703125,-0.06959376070797443,0.014691336642764508,-0.0504486960593611
1761139684736697300,10.332697265625,-1.5817483821958302,0.11965365837914868,-0.37040633386261756
1761139684746756600,10.342756591796874,-2.614230897003412,0.24034809451550243,0.46951735402122136
1761139684756815400,10.3528154296875,-3.1186820556312798,0.5783630747959018,0.1241974575549364
1761139684766874600,10.36287451171875,-3.432411320438981,1.1349756516851484,-0.28412293883413076
1761139684776933400,10.372933349609376,-3.4351702637583017,1.5642539342984556,-0.01014686161354184
1761139684786992600,10.38299267578125,-3.346115431255102,1.8027561086863277,0.09307553938664495
1761139684797051400,10.393051513671875,-3.2625007439792153,1.9026327794551847,0.13491393574997781
1761139684807110700,10.403110595703126,-3.1381144858539103,1.7157932800263165,0.15278437735289335
1761139684817169400,10.41316943359375,-2.70278479424715,1.3131868773698805,0.25729835253357886
1761139684827228700,10.423228759765625,-1.8562568127274512,0.8120714390359819,0.40014446952231225
1761139684837288400,10.433288330078126,-0.88625092009902,0.5645824232572689,0.49254240190833803
1761139684847347500,10.443347412109375,0.07389759538173675,0.585077623873204,0.6017994068976491
1761139684857406500,10.453406494140625,0.8650614170759916,0.5869771738842129,0.6233936182640493
1761139684867465500,10.463465576171876,1.4958248334556816,0.6500060231186449,0.6411545350778848
1761139684877524500,10.4735244140625,1.9290864866167305,0.7307099375143646,0.6336530734065919
1761139684887583500,10.48358349609375,2.0885212617695332,0.7238289458289742,0.5902005198448896
1761139684897642500,10.493642578125,1.905499274802208,0.7300810650262981,0.6141897365890443
1761139684907701500,10.503701416015625,1.5837065305262803,0.7009582117207348,0.5999810323640704
1761139684917760300,10.51376025390625,1.2777484842419624,0.6771108146000653,0.5725707551300525
1761139684927819500,10.523819580078126,1.0264818130880593,0.6992727428518235,0.44968372258655726
1761139684937879600,10.533879638671875,0.8285860821157693,0.8541769619029015,0.27155272253118456
1761139684947938600,10.5439384765625,0.6625298429965972,1.0158842850975691,0.08176357951648533
1761139684957997600,10.55399755859375,0.4861205521672964,1.136562117158994,-0.07272497140578925
1761139684968056300,10.564056396484375,0.3103068891435861,1.2222011498693377,-0.06397540936954318
1761139684978115600,10.574115478515624,-0.07086100416481494,1.2129378661572932,0.004056654979661106
1761139684988174300,10.58417431640625,-0.5531804104834794,1.242858664907515,0.14276355327181517
1761139684998233600,10.594233642578125,-1.033724039301276,1.2694047265276311,0.3625058629363775
1761139685008292400,10.604292236328124,-1.5576801088660954,1.1230715711407362,0.394256142136082
1761139685018351600,10.6143515625,-1.8228426189035176,0.9545413431234657,0.42884025652222335
1761139685028411400,10.624411376953125,-1.7526444625616073,0.815223546391353,0.46826212979573756
1761139685038470400,10.634470458984374,-1.360868665999174,0.7203780747227371,0.4769555777305737
1761139685048529400,10.644529296875,-0.6502671582728624,0.6205298993960022,0.4475890518622473
1761139685058588400,10.65458837890625,0.05572890148460865,0.5104142317507415,0.5154731591081246
1761139685068647400,10.6646474609375,0.6171633455723524,0.4842866512710228,0.6377601433992386
1761139685078706400,10.67470654296875,0.9823597627669572,0.37310251414403317,0.7432774504035711
1761139685088765400,10.684765380859375,1.2441706242889166,0.257646015193779,0.8606135708216577
1761139685098824400,10.694824462890624,1.3037234679758547,0.16572702543111517,0.900479059676826
1761139685108883500,10.704883544921875,1.2395008789122104,0.0832803042223677,0.9514090364471077
1761139685118942500,10.7149423828125,1.1067886909902096,-0.0021166633604094384,0.9968531291522085
1761139685129002500,10.72500244140625,0.9238029443800448,-0.03074373250566423,1.020020215858519
1761139685139061000,10.73506103515625,0.7462427299499511,0.02843770231930539,0.9290179025493561
1761139685149119700,10.74511962890625,0.602782938042283,0.1341644690895453,0.8198935840290039
1761139685159179000,10.755178955078126,0.4693406822800636,0.14896487386366353,0.7622717084046453
1761139685169237800,10.76523779296875,0.3782657421261072,0.1247935237519443,0.7187023235302418
1761139685179297000,10.775297119140625,0.4004138610482216,0.09895031317155807,0.7317096160762011
1761139685189355800,10.785355712890626,0.47668812243342396,0.11364069996625184,0.7245366557069123
1761139685199415000,10.7954150390625,0.6421908193230629,0.08486088794469833,0.6645191901829093
1761139685209473800,10.805473876953124,0.7790975363254546,0.08459805402373895,0.6125623180503025
1761139685219533000,10.815532958984376,0.8810404919743537,0.11210925261527299,0.5332567261451855
1761139685229593000,10.825593017578125,0.9227525585442781,0.119407702527754,0.4182533960562199
1761139685239651800,10.83565185546875,0.9110790718853473,0.13392874237122013,0.335181656550616
1761139685249711000,10.845711181640626,0.8143716788023709,0.11014801727859302,0.3151795366812497
1761139685259769900,10.855769775390625,0.6334761824697256,0.13823514346140436,0.26871364491404964
1761139685269829000,10.8658291015625,0.5404337416350842,0.17788391169281675,0.16590433649308978
1761139685279888000,10.875887939453126,0.43634617517292495,0.16550178357418627,0.06256861131154
1761139685289947100,10.885947021484375,0.3559884438663721,0.17897601777845992,-0.025595007972978055
1761139685300006000,10.896005859375,0.35046646557450295,0.08313726075617596,-0.06911591406315565
1761139685310065200,10.906065185546876,0.3908785554617643,-0.00017343860445544123,-0.012760624308511614
1761139685320124000,10.9161240234375,0.3941641530036926,-0.010237033248180523,0.02994775982238352
1761139685330183000,10.926182861328124,0.3700187227845192,-0.08894746313858777,0.0354029930209741
1761139685340243000,10.936242919921876,0.30905016708076,-0.18376082263588905,0.09558701075091958
1761139685350302000,10.946302001953125,0.21430442945957182,-0.30839422392267735,0.10914185417704284
1761139685360361000,10.95636083984375,0.08101765652000903,-0.37185386578980834,0.07605451768729836
1761139685370420000,10.966419921875,-0.23846856437921524,-0.3728069287309423,-0.0028485212989151475
1761139685380479000,10.97647900390625,-0.7490496040642262,-0.36571532650217414,-0.21541085633151233
1761139685390538000,10.9865380859375,-0.8824819229543208,-0.5097098098084331,-0.300970540195331
1761139685400596700,10.9965966796875,-0.5094008899897337,-0.6060352543691173,0.01344338240828365
1761139685410656000,11.006656005859375,-0.055526072388887404,-0.57099850084465,0.21598485682718455
1761139685420714800,11.01671484375,0.21839082199037074,-0.5159926529375836,0.3575511996710673
1761139685430774000,11.02677392578125,0.38091654889583587,-0.4329460478732362,0.46048375087920573
1761139685440834000,11.036833984375,0.5604951174110174,-0.4339124086873606,0.5516709923012182
1761139685450892800,11.046892822265624,0.5110609321564435,-0.5828692271087318,0.4032362615251913
1761139685460952000,11.0569521484375,0.3243716548532247,-0.6751533238567412,0.17271284746415913
1761139685471010800,11.0670107421875,0.13741817365586756,-0.7512237332329154,-0.07512370311059058
1761139685481070000,11.077070068359374,-0.032089667221903796,-0.8353272269390523,-0.25033556431625037
1761139685491128800,11.08712890625,-0.18033727792799473,-0.9112596891492605,-0.32832444759961216
1761139685501188000,11.09718798828125,-0.33946225647926326,-0.8446952131345867,-0.2345683420702815
1761139685511246800,11.107246826171876,-0.5081868380248546,-0.6853504543527961,-0.0982679203979671
1761139685521306000,11.11730615234375,-0.6713982091069222,-0.6730265409611165,0.04525532866735011
1761139685531364900,11.12736474609375,-0.7858055095314979,-0.7725707649052143,0.0841801391389221
1761139685541425000,11.1374248046875,-0.7778337999999523,-0.6845635417588055,0.13481350758280605
1761139685551484000,11.14748388671875,-0.7920856127142906,-0.6041756345096975,0.13992551683429627
1761139685561543000,11.15754296875,-0.8063450242131948,-0.6243311913751065,0.09226480752564967
1761139685571602000,11.167601806640626,-0.7770259907484054,-0.5874675146844238,0.1000583109460771
1761139685581661000,11.177660888671875,-0.7068845330297947,-0.5415140476850793,0.1371943383047357
1761139685591720000,11.187719970703125,-0.6689286041229963,-0.4129464487545192,0.16504136298820377
1761139685601779000,11.197779052734376,-0.6643313394606113,-0.43242122028153385,0.28079072567149993
1761139685611838000,11.207837890625,-0.5291624060362577,-0.5634990119347348,0.42546025869511067
1761139685621897000,11.21789697265625,-0.33681904849410055,-0.5778954207515343,0.4412996693944558
1761139685631956000,11.2279560546875,0.029317864421010014,-0.5959421687694266,0.3246855796406045
1761139685642016000,11.23801611328125,0.34003859506249423,-0.6056481912802905,0.26206719263689593
1761139685652075000,11.248074951171875,0.47922494743466376,-0.5428930078880861,0.1488029521670658
1761139685662134000,11.258134033203126,0.3651426411807537,-0.5226295702014118,0.019924579387437552
1761139685672193000,11.268193115234375,0.3245785756021738,-0.7347453305102885,0.055489708734140726
1761139685682252000,11.278251953125,0.5276917489618063,-0.9460535007633268,0.3155252448463812
1761139685692311000,11.28831103515625,0.6227145499587059,-0.7751926378414035,0.6297468597482889
1761139685702370000,11.2983701171875,0.4201502426534891,-0.09062736078323796,0.8821206153612583
1761139685712429000,11.308428955078124,-0.11349135462343692,0.6714136989369988,1.0288521954812109
1761139685722487800,11.31848779296875,-0.9710743986427783,1.2544662467233836,1.036420657974109
1761139685732547000,11.328547119140625,-1.8571932167947292,1.473780905560404,0.6888407076213509
1761139685742605800,11.338605712890624,-2.432741526430845,1.3066833406947553,0.24882256593741475
1761139685752666000,11.348666015625,-2.5026468373060227,1.1097072087854147,-0.11421298342887312
1761139685762724900,11.358724853515625,-2.0245465099871156,0.9536975127104669,-0.219236552099511
1761139685772783900,11.368783935546874,-1.0338093794971703,0.8716387496396899,-0.02631563213141635
1761139685782843000,11.3788427734375,0.21419278577864168,0.8273656004101038,0.2069680952221155
1761139685792902000,11.38890185546875,1.2238666719287634,0.8125929786920547,0.3350432709932327
1761139685802961000,11.3989609375,1.7883868070721625,0.7137659631066023,0.47339083445370195
1761139685813020000,11.40902001953125,1.990806152948737,0.5902671188076958,0.7614606112174689
1761139685823079000,11.419078857421875,1.8291238911300896,0.493066754576005,0.9499497775495052
1761139685833138000,11.429137939453126,1.562285556834936,0.4600480994082987,0.9651852675389498
1761139685843197000,11.439197021484375,1.199247194457054,0.5997123349579051,0.9222595143303275
1761139685853257000,11.449257080078125,0.6867196968793868,0.734659259662032,0.8646076819591224
1761139685863316000,11.45931591796875,0.22627368419468402,0.7940796360757202,0.7917818805273622
1761139685873375000,11.469375,-0.22890344817638397,0.9367544150855391,0.6910391675136983
1761139685883434000,11.47943408203125,-0.7456085236996411,1.330197487273067,0.4797439298074692
1761139685893493000,11.489492919921876,-1.1324322508126496,1.4628639363572,0.2140464361105114
1761139685903552000,11.499552001953125,-1.3838105656474828,1.2694278151422738,0.06771101570129394
1761139685913611000,11.509611083984375,-1.6525141092926263,1.024229942508042,0.0833478165006265
1761139685923670000,11.519669921875,-1.777951337775588,0.7526542044274509,0.1552873731497675
1761139685933729000,11.52972900390625,-1.5708967333137989,0.6714471628151834,0.19851291302256285
1761139685943788000,11.5397880859375,-1.032575453788042,0.8489800508469343,0.11342610736750065
1761139685953847000,11.549846923828126,-0.47813013793528075,0.8589415459562093,0.1228654782988131
1761139685963907000,11.559906982421875,-0.026842998740077017,0.6681725250586867,0.2769564082056284
1761139685973965800,11.5699658203125,0.33510698387920856,0.5734506067045033,0.3947237596478313
1761139685984025000,11.580025146484376,0.48202480728626246,0.4343309263603762,0.4168790389630943
1761139685994083800,11.590083740234375,0.5958148525953293,0.28903246604977173,0.3940784474816173
1761139686004143000,11.60014306640625,0.712920890584588,0.1896243809070438,0.3646230742860585
1761139686014201900,11.610201904296876,0.9091519032150507,0.11552992951264604,0.3540670473497361
1761139686024261000,11.62026123046875,1.1464560999900102,0.051628389096911996,0.390361034393683
1761139686034320000,11.63031982421875,1.23592068233788,0.10155848637595773,0.5261280798416584
1761139686044379000,11.64037890625,1.139378708949685,0.17218657683404162,0.6302839622996748
1761139686054438000,11.65043798828125,0.9912819048911332,0.16905361257055773,0.6977773897275328
1761139686064497000,11.660496826171874,0.8595300864338874,0.11486952024199999,0.741236811421439
1761139686074557200,11.67055712890625,0.7194599369645118,0.07270038952038158,0.7766163870342075
1761139686084616000,11.680615966796875,0.5909340948164463,0.059997011824441136,0.8012620218604802
1761139686094675000,11.690675048828124,0.5229372479110956,0.07238403988047502,0.7410303290639072
1761139686104734000,11.70073388671875,0.4951426475346088,0.09169867980917915,0.6952157956112176
1761139686114793000,11.71079296875,0.5353624297201633,0.11748617814695463,0.6643266632854938
1761139686124852000,11.72085205078125,0.5679015942752361,0.10117060130322351,0.5934586448580026
1761139686134911000,11.730910888671875,0.571331568723917,0.06233788042874075,0.5710895766615868
1761139686144970000,11.740969970703125,0.6338046837717294,0.0043795485247857865,0.5853923889108001
1761139686155029000,11.751029052734374,0.7602414446860551,-0.08554388350648805,0.5038499778643251
1761139686165088000,11.761087890625,0.7608586998015642,-0.17858411411773412,0.38105245023518797
1761139686175148000,11.77114794921875,0.6799392429590225,-0.1998856261478737,0.32692828053347767
1761139686185206800,11.781206787109374,0.4997960262984037,-0.2543139846942387,0.3115183838251978
1761139686195266000,11.79126611328125,0.3148872026711702,-0.406598577565141,0.29800328788757324
1761139686205324800,11.80132470703125,0.29933132162094117,-0.512851103508845,0.2533810329593718
1761139686215384000,11.811384033203124,0.30486031417548654,-0.5562695356052368,0.15855806538350878
1761139686225442800,11.82144287109375,0.3356844915062189,-0.5287366183722392,0.13291874334476889
1761139686235502000,11.831502197265625,0.44743163281083104,-0.5057656022273004,0.1868335811447352
1761139686245560800,11.841560791015626,0.5747036755055189,-0.45641244631968436,0.24268596287854013
1761139686255620000,11.8516201171875,0.5580529849559068,-0.43900640735812485,0.26432415951713917
1761139686265678800,11.861678955078125,0.4943506203740835,-0.3636744317917153,0.21806224762313067
1761139686275738000,11.871738037109376,0.32871991319060323,-0.30867256594002246,0.177335027372092
1761139686285798100,11.881798095703125,0.11631517987251282,-0.2665007729038596,0.1494417889267206
1761139686295857000,11.89185693359375,-0.08171089948117732,-0.27946163249220696,0.14505886113476008
1761139686305916200,11.901916259765626,-0.3471516419380903,-0.30111093504671005,0.18001144350711254
1761139686315975000,11.911974853515625,-0.5963795007407665,-0.25445195012651384,0.14016495161335915
1761139686326034200,11.9220341796875,-0.7677098808705807,-0.2590687962722033,0.07103362078536302
1761139686336093000,11.932093017578126,-0.9338450304448604,-0.36583372871745373,0.005991093640960753
1761139686346152200,11.942152099609375,-0.9705220254570245,-0.46745607410985973,-0.03324311157334596
1761139686356211000,11.9522109375,-0.8482336163938045,-0.5920502758974209,-0.048061179868318135
1761139686366270000,11.96227001953125,-0.6557160713285207,-0.6877535699717701,0.02096157601866871
1761139686376329000,11.972328857421875,-0.4947153620332479,-0.7580491953387856,0.02122194398790598
1761139686386388000,11.982387939453124,-0.40148061349689956,-0.8295646448243409,-0.09522774898447096
1761139686396448000,11.992447998046876,-0.3353372855037451,-0.9479606495589017,-0.17435895243706181
1761139686406507000,12.002507080078125,-0.3291653188705444,-0.9803525876630097,-0.2202147494819015
1761139686416566000,12.01256591796875,-0.3159031017154455,-0.990923446842283,-0.227060395859275
1761139686426625000,12.022625,-0.39662031398415565,-0.9603665421456098,-0.18320444912845268
1761139686436683800,12.032683837890625,-0.5361059415638446,-0.8931370263509452,-0.08215279802978039
1761139686446743000,12.042742919921874,-0.6635925037920475,-0.7946111126039177,-0.07845288406591862
1761139686456801800,12.0528017578125,-0.6408791522026062,-0.7656400157939642,-0.1508536832849495
1761139686466861000,12.062861083984375,-0.4820645547747612,-0.7865204528678208,-0.20268192406920715
1761139686476919800,12.072919921875,-0.268719325736165,-0.7441346517547964,-0.21986739734895527
1761139686486979000,12.08297900390625,0.020335516542196272,-0.6817442465543746,-0.14707509632799773
1761139686497037800,12.093037841796875,0.22811434362530708,-0.8121341290086508,-0.09133294263617135
1761139686507097000,12.10309716796875,0.4062421288102865,-1.0381510619632899,0.03996187560146209
1761139686517157000,12.1131572265625,0.4907248310923576,-0.9885677505616098,0.20569391056783495
1761139686527215900,12.1232158203125,0.29976679042875765,-0.6934673445086926,0.2093144208862446
1761139686537275100,12.133275146484374,-0.02868599625825882,-0.5039599410448223,0.20891721999589352
1761139686547334000,12.143333984375,-0.28842297411561013,-0.5570310214970261,0.3805467657353729
1761139686557393200,12.15339306640625,-0.45579321844279763,-0.6665888360638171,0.5470250661915168
1761139686567452000,12.163451904296876,-0.5900368537157774,-0.5954976764049381,0.6484123241864145
1761139686577511200,12.17351123046875,-0.8902911354005336,-0.202845462334156,0.7872404377054423
1761139686587570000,12.18356982421875,-1.585364819127321,0.4268609923385083,0.8127293184228241
1761139686597629200,12.193629150390626,-2.409671616488695,0.8560865949165075,0.6448685140997171
1761139686607688000,12.20368798828125,-3.019941110894084,1.03088903507106,0.32689521851409226
1761139686617747000,12.213746826171874,-3.1601842788428067,0.921732567846775,0.08134162777736782
1761139686627807000,12.223806884765626,-2.6503385676950213,0.7030139752067626,0.061175914844125504
1761139686637866000,12.233865966796875,-1.5144213973760603,0.48415451279133553,0.10601948437280952
1761139686647925000,12.243925048828125,-0.25511574779748913,0.41342254183366894,0.2577977168904617
1761139686657984000,12.25398388671875,0.8851432511180639,0.46422187796160574,0.4133629936661571
1761139686668043000,12.26404296875,1.6263900724768638,0.4494951412118971,0.4253947191782295
1761139686678102000,12.27410205078125,1.9630425322324037,0.3500423949435353,0.47150717613156884
1761139686688161000,12.2841611328125,1.9291858553379773,0.32037469417154785,0.5462826868589967
1761139686698220000,12.294219970703125,1.7410498863577841,0.26032763722687957,0.6844209184177219
1761139686708278800,12.30427880859375,1.6205471916675567,0.21815818227827546,0.7735995964962988
1761139686718338000,12.314338134765626,1.657578406944871,0.15765271404162048,0.7837608519613742
1761139686728396800,12.324396728515625,1.7102298006802796,0.16001052921414374,0.8129070130772889
1761139686738457000,12.33445703125,1.818060060802102,0.20716624814271925,0.8237873035319149
1761139686748516000,12.34451611328125,1.7841659745067358,0.2720002471029758,0.8596448719199746
1761139686758574800,12.354574951171875,1.668352314415574,0.22926132170334457,0.7958402890726923
1761139686768634000,12.364634033203124,1.4804092376589775,0.2255120521724224,0.7844831748865544
1761139686778692900,12.37469287109375,1.3356599904626607,0.30302929935604334,0.7087493770536035
1761139686788752100,12.384752197265625,1.2696610393762588,0.4777513677507639,0.6448613537065685
1761139686798811000,12.394810791015624,1.1337556083709002,0.6458000958614051,0.6282733531296253
1761139686808870100,12.4048701171875,0.9773907421827316,0.7038761449940503,0.607151800776273
1761139686818929000,12.414928955078125,0.8207710244506597,0.7177285831272602,0.563976675916463
1761139686828988200,12.42498828125,0.5786287399947643,0.7705081332869828,0.4934203537866473
1761139686839047000,12.435046875,0.30946459310054775,0.761396898331493,0.4506596549466252
1761139686849107000,12.44510693359375,-0.018243512699007987,0.7211513971827924,0.46456331181041893
1761139686859166000,12.455166015625,-0.3586988718688488,0.653091568043828,0.491346031730622
1761139686869225000,12.465224853515625,-0.7445639830827713,0.5659582051225006,0.45063824683241543
1761139686879284000,12.475283935546875,-1.078708259409666,0.4696057629570365,0.3574163577776402
1761139686889343000,12.485343017578124,-1.2849340118318795,0.459403225633502,0.3515248885862529
1761139686899402000,12.495402099609375,-1.3496224648416042,0.5098702610671519,0.3219857095647603
1761139686909461000,12.5054609375,-1.1812485964298247,0.5076812265902757,0.3216594002198428
1761139686919520000,12.51552001953125,-0.9739064071983098,0.44431890761777754,0.4391800103593617
1761139686929579000,12.5255791015625,-0.7556260598450899,0.3786411513097584,0.5896536996170878
1761139686939638000,12.535637939453125,-0.3741735043764114,0.371297510548681,0.6687962829802185
1761139686949697000,12.545697021484376,0.09670739308297634,0.39099692114442586,0.6384378234650939
1761139686959755800,12.555755859375,0.3216635649383068,0.3799006498515606,0.6197698017437011
1761139686969816000,12.565816162109375,0.309285144880414,0.3181149325460195,0.6373769162353128
1761139686979874800,12.575874755859376,0.24412848983705043,0.26017683057934043,0.5930282175514847
1761139686989934000,12.58593408203125,0.20730477983057496,0.2101093158572912,0.5725443785797805
1761139686999992800,12.595992919921875,0.19542554146647453,0.14937851443216205,0.5415980361741036
1761139687010051800,12.6060517578125,0.2202443409025669,0.15495587617307902,0.5511590972563252
1761139687020111000,12.616111083984375,0.28463468774855133,0.17886735150590538,0.5115759690064936
1761139687030169900,12.626169921875,0.34052316370904445,0.1635368036441505,0.4829609921578318
