time,seconds_elapsed,z,y,x
1761139674476379000,0.07237890625,0.21381990611553192,-0.04612477868795395,-0.15699219703674316
1761139674486438100,0.082438232421875,0.2163693606853485,0.10632894188165665,-0.00007156701758503914
1761139674496497000,0.092496826171875,0.20693844556808472,0.2135067582130432,0.14786885678768158
1761139674506557000,0.102556884765625,0.20816615223884583,0.27938270568847656,0.2505512833595276
1761139674516616000,0.112615966796875,0.21742090582847595,0.30081629753112793,0.3025318682193756
1761139674526675000,0.122675048828125,0.21981562674045563,0.2746121287345886,0.31614330410957336
1761139674536734000,0.13273388671875,0.23177380859851837,0.22833678126335144,0.3023907244205475
1761139674546793000,0.14279296875,0.2550080418586731,0.18432989716529846,0.27949899435043335
1761139674556852000,0.15285205078125,0.28947505354881287,0.15506073832511902,0.2569197118282318
1761139674566912000,0.162912109375,0.33294981718063354,0.1365017145872116,0.2454260289669037
1761139674576971000,0.172970947265625,0.3785872459411621,0.11852207034826279,0.24847683310508728
1761139674587030000,0.183030029296875,0.4289902150630951,0.1067197397351265,0.2740391790866852
1761139674597089000,0.193089111328125,0.4648768901824951,0.10300445556640625,0.31230756640434265
1761139674607148000,0.20314794921875,0.47605979442596436,0.10581808537244797,0.3374834954738617
1761139674617207000,0.21320703125,0.4820244610309601,0.10690656304359436,0.34745386242866516
1761139674627266800,0.223266845703125,0.48360639810562134,0.10092483460903168,0.3222390413284302
1761139674637326000,0.233326171875,0.4659515619277954,0.07490386068820953,0.2603599727153778
1761139674647384800,0.243384765625,0.43088462948799133,0.021759677678346634,0.18413923680782318
1761139674657444000,0.253444091796875,0.38458681106567383,-0.04862084612250328,0.10709014534950256
1761139674667502800,0.2635029296875,0.33923423290252686,-0.1016547679901123,0.04521692544221878
1761139674677562000,0.27356201171875,0.29729169607162476,-0.14193545281887054,0.001168672228232026
1761139674687622100,0.2836220703125,0.2527894675731659,-0.1631677746772766,-0.021392030641436577
1761139674697681000,0.293680908203125,0.22500059008598328,-0.19475196301937103,-0.027385102584958076
1761139674707740200,0.303740234375,0.2051057070493698,-0.23001380264759064,-0.012456487864255905
1761139674717799000,0.313798828125,0.20939180254936218,-0.2931213974952698,0.012498130090534687
1761139674727858200,0.323858154296875,0.2375696450471878,-0.34975379705429077,0.026410484686493874
1761139674737917000,0.3339169921875,0.28467822074890137,-0.343702495098114,0.040674157440662384
1761139674747977000,0.34397705078125,0.3350910544395447,-0.268273264169693,0.06614143401384354
1761139674758036000,0.354035888671875,0.36663761734962463,-0.1504005342721939,0.09253858029842377
1761139674768095000,0.364094970703125,0.3853769600391388,-0.016078945249319077,0.1146705150604248
1761139674778154000,0.374154052734375,0.3932109773159027,0.11052573472261429,0.10694427043199539
1761139674788213000,0.384212890625,0.3854052424430847,0.20827679336071014,0.08509410172700882
1761139674798272000,0.39427197265625,0.3778974711894989,0.2729968726634979,0.0502641499042511
1761139674808332000,0.40433203125,0.37268194556236267,0.30480673909187317,0.011609699577093124
1761139674818390800,0.414390869140625,0.3670705556869507,0.31607872247695923,-0.022014634683728218
1761139674828450000,0.424449951171875,0.37149912118911743,0.32914501428604126,-0.05405539274215698
1761139674838509000,0.434509033203125,0.3835514187812805,0.3403536081314087,-0.07348862290382385
1761139674848568000,0.444568115234375,0.3975977301597595,0.35783275961875916,-0.08015824109315872
1761139674858627000,0.454626953125,0.4176066517829895,0.3715062141418457,-0.07198575884103775
1761139674868686800,0.464686767578125,0.44521111249923706,0.3817380666732788,-0.06295471638441086
1761139674878746000,0.47474609375,0.4738922417163849,0.3785765767097473,-0.049060527235269547
1761139674888804900,0.484804931640625,0.5001707077026367,0.3624780476093292,-0.04447110369801521
1761139674898864000,0.494864013671875,0.5165566205978394,0.328861802816391,-0.0532669723033905
1761139674908923000,0.5049228515625,0.534302830696106,0.2983108162879944,-0.07644552737474442
1761139674918982100,0.514982177734375,0.5534796714782715,0.2688814103603363,-0.10757187753915787
1761139674929042000,0.5250419921875,0.5726972818374634,0.23306722939014435,-0.14245769381523132
1761139674939101000,0.535100830078125,0.5854871273040771,0.18335607647895813,-0.18693679571151733
1761139674949160000,0.545159912109375,0.6010562777519226,0.13267159461975098,-0.21979941427707672
1761139674959219000,0.555218994140625,0.6238882541656494,0.09331870079040527,-0.23240163922309875
1761139674969278000,0.56527783203125,0.6385127305984497,0.0582139827311039,-0.22787639498710632
1761139674979337000,0.5753369140625,0.6491335034370422,0.020537450909614563,-0.21911965310573578
1761139674989397000,0.58539697265625,0.6639702320098877,-0.0017279074527323246,-0.2116180658340454
1761139674999456000,0.5954560546875,0.6813228726387024,-0.014773125760257244,-0.20930376648902893
1761139675009515000,0.605514892578125,0.6941622495651245,-0.01821446232497692,-0.2085077464580536
1761139675019574000,0.615573974609375,0.6919699311256409,-0.02781369350850582,-0.21912775933742523
1761139675029633000,0.625633056640625,0.6798890233039856,-0.03801865875720978,-0.24435988068580627
1761139675039692000,0.635692138671875,0.6639863848686218,-0.025041770190000534,-0.27630332112312317
1761139675049752000,0.645751953125,0.6502732038497925,0.002151499968022108,-0.31329116225242615
1761139675059810800,0.655810791015625,0.6475151181221008,0.026519475504755974,-0.33592772483825684
1761139675069870000,0.6658701171875,0.6471894383430481,0.03407672792673111,-0.33674317598342896
1761139675079928800,0.6759287109375,0.6391534805297852,0.019023966044187546,-0.30889642238616943
1761139675089988000,0.685988037109375,0.6259189248085022,0.001890785526484251,-0.2720281481742859
1761139675100046800,0.696046875,0.616991400718689,-0.011832963675260544,-0.24123743176460266
1761139675110106000,0.706106201171875,0.6061187982559204,-0.01921524666249752,-0.22945000231266022
1761139675120166100,0.716166259765625,0.5980881452560425,-0.014335844665765762,-0.22806628048419952
1761139675130225000,0.726224853515625,0.5902312994003296,-0.005681902635842562,-0.2280508279800415
1761139675140284000,0.736283935546875,0.5756080746650696,0.008398037403821945,-0.2257356494665146
1761139675150343000,0.746343017578125,0.5661823749542236,0.010730167850852013,-0.21214208006858826
1761139675160402000,0.75640185546875,0.5499237775802612,0.030131161212921143,-0.19332486391067505
1761139675170461000,0.7664609375,0.5308102965354919,0.06404358893632889,-0.17435570061206818
1761139675180520700,0.776520751953125,0.5239892601966858,0.09378015249967575,-0.15699402987957
1761139675190580000,0.786580078125,0.5222880244255066,0.09193911403417587,-0.14347583055496216
1761139675200638700,0.796638671875,0.5176287889480591,0.0856328010559082,-0.12239152193069458
1761139675210698000,0.806697998046875,0.5172287821769714,0.08676224201917648,-0.10522318631410599
1761139675220756700,0.8167568359375,0.5207239985466003,0.09468241035938263,-0.08601869642734528
1761139675230816000,0.82681591796875,0.5221208333969116,0.09918928146362305,-0.06513471901416779
1761139675240875800,0.836875732421875,0.5211474299430847,0.11020366847515106,-0.041470836848020554
1761139675250934800,0.846934814453125,0.525895357131958,0.12003260105848312,-0.013995272107422352
1761139675260994000,0.856994140625,0.5310421586036682,0.13568691909313202,0.011092237196862698
1761139675271052800,0.867052734375,0.5412338376045227,0.13871972262859344,0.03640931472182274
1761139675281112000,0.877112060546875,0.5457797050476074,0.13842949271202087,0.0706070140004158
1761139675291170800,0.8871708984375,0.5459003448486328,0.16674236953258514,0.09986183792352676
1761139675301230800,0.89723095703125,0.5565576553344727,0.20873557031154633,0.12701937556266785
1761139675311289900,0.907289794921875,0.582893431186676,0.2547888457775116,0.14186783134937286
1761139675321348900,0.917348876953125,0.6133906841278076,0.29218998551368713,0.17761917412281036
1761139675331408000,0.927407958984375,0.6320027112960815,0.31248781085014343,0.2201530486345291
1761139675341467000,0.937466796875,0.6492146849632263,0.3272801637649536,0.2420978546142578
1761139675351526000,0.94752587890625,0.648042619228363,0.3267382085323334,0.23476165533065796
1761139675361586000,0.9575859375,0.6259435415267944,0.3272263705730438,0.18803086876869202
1761139675371644700,0.967644775390625,0.6158879995346069,0.3086364269256592,0.13169649243354797
1761139675381704000,0.977703857421875,0.6050097942352295,0.27747079730033875,0.0997425839304924
1761139675391762700,0.9877626953125,0.5831774473190308,0.2639336884021759,0.0745600014925003
1761139675401822000,0.997822021484375,0.5620741844177246,0.25983959436416626,0.04044383391737938
1761139675411880700,1.007880615234375,0.5480254888534546,0.279507040977478,-0.007179077249020338
1761139675421940000,1.01793994140625,0.5484116673469543,0.32162538170814514,-0.06014198809862137
1761139675432000000,1.028,0.5522493124008179,0.36256590485572815,-0.08831503242254257
1761139675442058800,1.038058837890625,0.5518636703491211,0.4014081060886383,-0.08242998272180557
1761139675452118000,1.048117919921875,0.5449077486991882,0.4005609452724457,-0.060545455664396286
1761139675462176800,1.0581767578125,0.5481275320053101,0.37140870094299316,-0.006577251013368368
1761139675472236000,1.068236083984375,0.5484833717346191,0.3300844132900238,0.0632079541683197
1761139675482294800,1.078294677734375,0.5612134337425232,0.3155694901943207,0.15600964426994324
1761139675492354800,1.088354736328125,0.581635057926178,0.3335716426372528,0.24153944849967957
1761139675502413800,1.098413818359375,0.6045944690704346,0.35117316246032715,0.3020556569099426
1761139675512472800,1.108472900390625,0.6055153608322144,0.36263221502304077,0.3374362587928772
1761139675522531800,1.11853173828125,0.6036819815635681,0.3890174627304077,0.3508250415325165
1761139675532590800,1.1285908203125,0.5991133451461792,0.4088159203529358,0.35005858540534973
1761139675542649900,1.13864990234375,0.5851671695709229,0.40279701352119446,0.3322461247444153
1761139675552710000,1.1487099609375,0.5745693445205688,0.3577355146408081,0.2982567250728607
1761139675562769000,1.158768798828125,0.5599544644355774,0.2855847477912903,0.2557879686355591
1761139675572828000,1.168827880859375,0.5409096479415894,0.17417965829372406,0.22470378875732422
1761139675582887000,1.178886962890625,0.5135089159011841,0.076255664229393,0.20222263038158417
1761139675592946000,1.18894580078125,0.5109501481056213,-0.0021326150745153427,0.16550563275814056
1761139675603005000,1.1990048828125,0.5357385277748108,-0.05209248512983322,0.13172048330307007
1761139675613064700,1.209064697265625,0.5658391714096069,-0.04084009677171707,0.11856898665428162
1761139675623124000,1.2191240234375,0.5894778370857239,0.02077667787671089,0.11973732709884644
1761139675633182700,1.2291826171875,0.6073843836784363,0.0902220606803894,0.1224292516708374
1761139675643242000,1.239241943359375,0.6139250993728638,0.1331804245710373,0.11847015470266342
1761139675653300700,1.24930078125,0.6050048470497131,0.15134237706661224,0.09968022257089615
1761139675663360000,1.259360107421875,0.5942156910896301,0.14452722668647766,0.0740562304854393
1761139675673418800,1.269418701171875,0.5793275237083435,0.11241588741540909,0.04247700050473213
1761139675683478800,1.279478759765625,0.5852403044700623,0.060052670538425446,0.01437357161194086
1761139675693538000,1.2895380859375,0.6043897867202759,-0.00016140379011631012,-0.008573289960622787
1761139675703596800,1.2995966796875,0.6276315450668335,-0.06548167020082474,-0.024478329345583916
1761139675713656000,1.309656005859375,0.6418030261993408,-0.1240760087966919,-0.025006700307130814
1761139675723714800,1.31971484375,0.6376685500144958,-0.1624692976474762,-0.016252465546131134
1761139675733773800,1.32977392578125,0.6339928507804871,-0.17367775738239288,-0.014733931049704552
1761139675743833900,1.339833740234375,0.6271345019340515,-0.1522340178489685,-0.0291155818849802
1761139675753892900,1.349892822265625,0.6226169466972351,-0.11157021671533585,-0.05906762182712555
1761139675763951900,1.359951904296875,0.6096258163452148,-0.06454551219940186,-0.09396680444478989
1761139675774011000,1.370010986328125,0.5961851477622986,-0.03158330172300339,-0.12584377825260162
1761139675784070000,1.38006982421875,0.5819137096405029,-0.00551051739603281,-0.14814946055412292
1761139675794129000,1.39012890625,0.570544958114624,0.0030978848226368427,-0.1574513465166092
1761139675804188700,1.400188720703125,0.5670115947723389,-0.0039043230935931206,-0.17202012240886688
1761139675814248000,1.410248046875,0.5651918649673462,-0.02391504868865013,-0.1781911998987198
1761139675824306700,1.420306640625,0.5719006061553955,-0.046446722000837326,-0.18554311990737915
1761139675834366000,1.430365966796875,0.57799232006073,-0.061547912657260895,-0.17633071541786194
1761139675844424700,1.4404248046875,0.5886129140853882,-0.05742549151182175,-0.17005832493305206
1761139675854484000,1.45048388671875,0.5958293080329895,-0.04181217774748802,-0.16732804477214813
1761139675864542700,1.460542724609375,0.6017622947692871,-0.023774854838848114,-0.16475996375083923
1761139675874602800,1.470602783203125,0.6115046739578247,-0.0072275688871741295,-0.17305517196655273
1761139675884662000,1.480662109375,0.6257550716400146,0.011643745005130768,-0.18205277621746063
1761139675894720800,1.490720703125,0.6360228657722473,0.012880250811576843,-0.19274617731571198
1761139675904780000,1.500780029296875,0.6428506374359131,-0.0070337518118321896,-0.20408186316490173
1761139675914838800,1.5108388671875,0.6482698917388916,-0.023528307676315308,-0.21450573205947876
1761139675924897800,1.520897705078125,0.6527081727981567,-0.04422895610332489,-0.2208665907382965
1761139675934957800,1.530957763671875,0.6494953632354736,-0.07484598457813263,-0.21504545211791992
1761139675945016800,1.541016845703125,0.6396467089653015,-0.10458763688802719,-0.21041475236415863
1761139675955075800,1.551075927734375,0.6226312518119812,-0.11636679619550705,-0.21295540034770966
1761139675965134800,1.561134765625,0.6107208728790283,-0.11342178285121918,-0.22447054088115692
1761139675975193900,1.57119384765625,0.594687819480896,-0.1276225596666336,-0.2306155115365982
1761139675985252900,1.5812529296875,0.5755831599235535,-0.1493794471025467,-0.2292623072862625
1761139675995311600,1.5913115234375,0.55476313829422,-0.17175611853599548,-0.2193678617477417
1761139676005372000,1.601371826171875,0.5329508781433105,-0.18672946095466614,-0.20814290642738342
1761139676015431000,1.611430908203125,0.5170973539352417,-0.20031903684139252,-0.20588479936122894
1761139676025490000,1.621489990234375,0.494208961725235,-0.20994478464126587,-0.213199183344841
1761139676035549000,1.631548828125,0.4679584503173828,-0.21204228699207306,-0.21539123356342316
1761139676045607700,1.641607666015625,0.4379839599132538,-0.20142313838005066,-0.2188338041305542
1761139676055667000,1.6516669921875,0.408862829208374,-0.19343897700309753,-0.21679195761680603
1761139676065726700,1.661726806640625,0.37619176506996155,-0.1953698992729187,-0.2105046659708023
1761139676075786000,1.671785888671875,0.33756768703460693,-0.19863361120224,-0.19509534537792206
1761139676085844700,1.6818447265625,0.2954660952091217,-0.19037267565727234,-0.18022499978542328
1761139676095904000,1.691904052734375,0.26019731163978577,-0.17484192550182343,-0.16788551211357117
1761139676105962800,1.701962646484375,0.22831588983535767,-0.15209990739822388,-0.15214520692825317
1761139676116021800,1.712021728515625,0.20834217965602875,-0.12554818391799927,-0.1259482204914093
1761139676126082000,1.72208203125,0.19263751804828644,-0.08794361352920532,-0.08836681395769119
1761139676136142300,1.732142333984375,0.18028151988983154,-0.04582146555185318,-0.05158190429210663
1761139676146201000,1.742201171875,0.18058419227600098,-0.005169866140931845,-0.01681508682668209
1761139676156260400,1.75226025390625,0.17884087562561035,0.012583032250404358,0.019128264859318733
1761139676166319000,1.762319091796875,0.18606550991535187,-0.00045887893065810204,0.06134534254670143
1761139676176378400,1.77237841796875,0.19875706732273102,-0.033159565180540085,0.10973923653364182
1761139676186437000,1.78243701171875,0.2102557271718979,-0.08385597914457321,0.1507280021905899
1761139676196497200,1.7924970703125,0.2225792407989502,-0.15059080719947815,0.18755711615085602
1761139676206556400,1.802556396484375,0.2339029312133789,-0.21938025951385498,0.22055794298648834
1761139676216615200,1.812615234375,0.24697932600975037,-0.2805200517177582,0.22598867118358612
1761139676226674400,1.82267431640625,0.28898462653160095,-0.3835636377334595,0.20703302323818207
1761139676236733200,1.832733154296875,0.2981155514717102,-0.4736272394657135,0.16453856229782104
1761139676246792200,1.842792236328125,0.2936367094516754,-0.560301661491394,0.12077461928129196
1761139676256852200,1.852852294921875,0.29373443126678467,-0.6050747036933899,0.07184888422489166
1761139676266911200,1.8629111328125,0.2943039536476135,-0.6397866606712341,0.014492074027657509
1761139676276970200,1.87297021484375,0.2788701355457306,-0.6397168636322021,-0.06884169578552246
1761139676287029200,1.883029296875,0.2711530923843384,-0.6150530576705933,-0.15983839333057404
1761139676297088300,1.893088134765625,0.27444982528686523,-0.5995126962661743,-0.26057538390159607
1761139676307147300,1.903147216796875,0.2758728861808777,-0.5596106052398682,-0.35551074147224426
1761139676317206300,1.913206298828125,0.27962902188301086,-0.48634541034698486,-0.42275717854499817
1761139676327266300,1.923266357421875,0.28318294882774353,-0.3566688001155853,-0.4389903247356415
1761139676337325000,1.933324951171875,0.289127916097641,-0.19482795894145966,-0.39493444561958313
1761139676347384300,1.94338427734375,0.2549980878829956,0.009317422285676003,-0.2761220633983612
1761139676357443300,1.953443359375,0.21182745695114136,0.2211548388004303,-0.1262470781803131
1761139676367502300,1.96350244140625,0.14522992074489594,0.40152621269226074,0.029101748019456863
1761139676377561300,1.973561279296875,0.10485640168190002,0.49801596999168396,0.15647035837173462
1761139676387621000,1.98362109375,0.062459010630846024,0.44770488142967224,0.2676434814929962
1761139676397680400,1.993680419921875,0.028276540338993073,0.3547283411026001,0.35664206743240356
1761139676407739100,2.0037392578125,0.01307248417288065,0.2202540934085846,0.40407079458236694
1761139676417798400,2.01379833984375,0.00662124203518033,0.0683969184756279,0.4251664876937866
1761139676427857200,2.023857177734375,-0.0018575292779132724,-0.026835747063159943,0.4280286729335785
1761139676437916200,2.033916259765625,0.0011148247867822647,-0.07396624237298965,0.4095766842365265
1761139676447975200,2.04397509765625,0.017102841287851334,-0.06656762957572937,0.3652769923210144
1761139676458035200,2.05403515625,0.04898940026760101,-0.0270303376019001,0.3016868233680725
1761139676468094200,2.06409423828125,0.07870961725711823,0.021427225321531296,0.2269899547100067
1761139676478153200,2.0741533203125,0.09032339602708817,0.05232202634215355,0.14024308323860168
1761139676488212200,2.084212158203125,0.0877358689904213,0.05979219079017639,0.05175609141588211
1761139676498271200,2.094271240234375,0.06746122241020203,0.03525329381227493,-0.03685127571225166
1761139676508330000,2.104330078125,0.03523331135511398,-0.018430346623063087,-0.11523839086294174
1761139676518390300,2.114390380859375,0.0005235332064330578,-0.09130322188138962,-0.19491936266422272
1761139676528449300,2.12444921875,-0.039534471929073334,-0.17968443036079407,-0.2628754675388336
1761139676538508300,2.13450830078125,-0.06598871201276779,-0.2404090315103531,-0.3296145498752594
1761139676548567300,2.1445673828125,-0.09040004014968872,-0.24672266840934753,-0.36127349734306335
1761139676558626000,2.1546259765625,-0.10155602544546127,-0.2351352572441101,-0.35185497999191284
1761139676568685300,2.164685302734375,-0.07817114889621735,-0.2249971181154251,-0.2955455780029297
1761139676578744000,2.174744140625,-0.023606708273291588,-0.20130591094493866,-0.20091228187084198
1761139676588804400,2.184804443359375,0.03109615668654442,-0.1600322723388672,-0.07642873376607895
1761139676598863000,2.194863037109375,0.08241553604602814,-0.07046910375356674,0.04652435705065727
1761139676608922400,2.20492236328125,0.12196280807256699,0.06229991465806961,0.1478470265865326
1761139676618981000,2.214981201171875,0.14132265746593475,0.23026788234710693,0.20542164146900177
1761139676629040000,2.2250400390625,0.14916826784610748,0.4019352197647095,0.232334703207016
1761139676639099100,2.23509912109375,0.16294719278812408,0.5320510864257812,0.24028077721595764
1761139676649159200,2.2451591796875,0.19048574566841125,0.5977727770805359,0.24928641319274902
1761139676659218400,2.255218505859375,0.22016321122646332,0.6022951006889343,0.25466787815093994
1761139676669277200,2.265277099609375,0.2503652572631836,0.5782456994056702,0.2576223909854889
1761139676679336200,2.275336181640625,0.2887027859687805,0.5348675847053528,0.25245264172554016
1761139676689395200,2.285395263671875,0.330977201461792,0.4869749844074249,0.2346266210079193
1761139676699454200,2.2954541015625,0.3580855131149292,0.46304917335510254,0.20733214914798737
1761139676709513200,2.30551318359375,0.3841486871242523,0.4753574728965759,0.17289507389068604
1761139676719573200,2.3155732421875,0.41875168681144714,0.5353882908821106,0.13008902966976166
1761139676729632300,2.32563232421875,0.44268184900283813,0.6017305254936218,0.09805939346551895
1761139676739691300,2.335691162109375,0.46234822273254395,0.6283565163612366,0.0744938850402832
1761139676749750000,2.34575,0.4772765040397644,0.6128188967704773,0.05136406421661377
1761139676759809300,2.355809326171875,0.4925537407398224,0.565094530582428,0.027869122102856636
1761139676769868000,2.365867919921875,0.5094556212425232,0.5058141946792603,-0.00006657629273831844
1761139676779927300,2.37592724609375,0.5332711935043335,0.43149495124816895,-0.02707422524690628
1761139676789987300,2.3859873046875,0.5498456358909607,0.36606988310813904,-0.061161354184150696
1761139676800046000,2.396046142578125,0.5689697861671448,0.31318989396095276,-0.10404863208532333
1761139676810105300,2.406105224609375,0.5918620228767395,0.27455681562423706,-0.16115230321884155
1761139676820164000,2.4161640625,0.6089155673980713,0.24398373067378998,-0.21943025290966034
1761139676830223400,2.426223388671875,0.635324239730835,0.21452035009860992,-0.2603042423725128
1761139676840282000,2.4362822265625,0.6628994345664978,0.17458705604076385,-0.2822055518627167
1761139676850342400,2.44634228515625,0.6851387023925781,0.1609213948249817,-0.30515310168266296
1761139676860401200,2.456401123046875,0.7002023458480835,0.1345105618238449,-0.3151548504829407
1761139676870460200,2.466460205078125,0.7224630117416382,0.11955922842025757,-0.31819042563438416
1761139676880519200,2.476519287109375,0.7326216101646423,0.08554080873727798,-0.3061593174934387
1761139676890578200,2.486578125,0.7401040196418762,0.03375593572854996,-0.28900161385536194
1761139676900637200,2.49663720703125,0.7444944977760315,-0.01240490097552538,-0.28154316544532776
1761139676910696200,2.5066962890625,0.7496085166931152,-0.03586992621421814,-0.2783465087413788
1761139676920756200,2.516756103515625,0.7532852292060852,-0.044508956372737885,-0.28401532769203186
1761139676930815200,2.526815185546875,0.7546195983886719,-0.046362362802028656,-0.28830868005752563
1761139676940874000,2.5368740234375,0.7540454268455505,-0.05735296010971069,-0.2995719909667969
1761139676950933200,2.546933349609375,0.7475058436393738,-0.07433189451694489,-0.31217750906944275
1761139676960992000,2.556991943359375,0.7341642379760742,-0.08758139610290527,-0.32395267486572266
1761139676971051300,2.56705126953125,0.7190582156181335,-0.11294224113225937,-0.33043569326400757
1761139676981111300,2.577111328125,0.695427417755127,-0.149648055434227,-0.3313363790512085
1761139676991170000,2.587170166015625,0.6605273485183716,-0.2017717808485031,-0.32632941007614136
1761139677001229300,2.597229248046875,0.6290842294692993,-0.25491172075271606,-0.31436437368392944
1761139677011288000,2.6072880859375,0.5984731316566467,-0.29629838466644287,-0.2960187792778015
1761139677021347300,2.617347412109375,0.5825203061103821,-0.3015994131565094,-0.27754974365234375
1761139677031406000,2.627406005859375,0.5607715249061584,-0.2851317524909973,-0.2517911195755005
1761139677041465300,2.63746533203125,0.5453430414199829,-0.25815367698669434,-0.21488183736801147
1761139677051525000,2.647525146484375,0.5442591905593872,-0.2294614315032959,-0.17152783274650574
1761139677061584100,2.657584228515625,0.5465324521064758,-0.19003625214099884,-0.12001989036798477
1761139677071643100,2.66764306640625,0.5321987271308899,-0.13760443031787872,-0.06733398884534836
1761139677081702100,2.6777021484375,0.5341393947601318,-0.0798734799027443,-0.022294873371720314
1761139677091761200,2.68776123046875,0.5435155034065247,-0.02718926966190338,0.01677711494266987
1761139677101820200,2.697820068359375,0.5564925074577332,0.024296026676893234,0.03520725294947624
1761139677111880200,2.707880126953125,0.5718623399734497,0.08146952837705612,0.026136744767427444
1761139677121939200,2.717939208984375,0.6009288430213928,0.1315918117761612,-0.013288957066833973
1761139677131997400,2.72799755859375,0.6463109850883484,0.1509946882724762,-0.07106262445449829
1761139677142056200,2.73805615234375,0.699237048625946,0.1093825250864029,-0.11804904043674469
1761139677152115500,2.748115478515625,0.7492495775222778,0.030843501910567284,-0.1377638876438141
1761139677162174200,2.75817431640625,0.809300422668457,-0.04439931735396385,-0.12606941163539886
1761139677172233200,2.768233154296875,0.868732213973999,-0.07598743587732315,-0.08916077017784119
1761139677182293200,2.778293212890625,0.9308935403823853,-0.03722645342350006,-0.020618459209799767
1761139677192352300,2.788352294921875,0.9887055158615112,0.056509681046009064,0.088814876973629
1761139677202411300,2.798411376953125,1.037825345993042,0.17520304024219513,0.21236690878868103
1761139677212470300,2.80847021484375,1.0777045488357544,0.26147398352622986,0.3173401951789856
1761139677222529300,2.818529296875,1.0914115905761719,0.2953331470489502,0.39650291204452515
1761139677232588300,2.82858837890625,1.0854759216308594,0.26516762375831604,0.43456679582595825
1761139677242647300,2.838647216796875,1.051945686340332,0.16990289092063904,0.4429400563240051
1761139677252707300,2.848707275390625,0.9975813627243042,0.02161112241446972,0.4138534665107727
1761139677262766300,2.858766357421875,0.9313357472419739,-0.10759666562080383,0.33348777890205383
1761139677272825300,2.868825439453125,0.8938542604446411,-0.2290767878293991,0.21364949643611908
1761139677282884400,2.87888427734375,0.8893340826034546,-0.3451456129550934,0.08695065975189209
1761139677292943400,2.888943359375,0.8396047949790955,-0.4440649449825287,-0.044362302869558334
1761139677303002400,2.89900244140625,0.7544366121292114,-0.5262053608894348,-0.17903728783130646
1761139677313062100,2.909062255859375,0.6781025528907776,-0.5637056231498718,-0.3216160833835602
1761139677323121400,2.919121337890625,0.6514056921005249,-0.512729823589325,-0.468485951423645
1761139677333180200,2.92918017578125,0.6332979798316956,-0.32583194971084595,-0.5436984896659851
1761139677343239400,2.939239501953125,0.6024186015129089,-0.13528941571712494,-0.5425900816917419
1761139677353298200,2.949298095703125,0.5710846781730652,0.008630677126348019,-0.44850918650627136
1761139677363357200,2.959357177734375,0.5447079539299011,0.1174522340297699,-0.26903796195983887
1761139677373416200,2.969416259765625,0.5016496777534485,0.19300876557826996,-0.04685522988438606
1761139677383476200,2.979476318359375,0.45641401410102844,0.21004927158355713,0.16426420211791992
1761139677393535500,2.989535400390625,0.4440237581729889,0.16602006554603577,0.3116755187511444
1761139677403594200,2.99959423828125,0.4743499457836151,0.10450451076030731,0.37491387128829956
1761139677413653200,3.0096533203125,0.5404178500175476,0.07302593439817429,0.3569711148738861
1761139677423712300,3.019712158203125,0.6327206492424011,0.0897631049156189,0.2745286822319031
1761139677433771300,3.029771240234375,0.7309831380844116,0.13618291914463043,0.16132210195064545
1761139677443830300,3.039830322265625,0.81709885597229,0.17917858064174652,0.045877788215875626
1761139677453890300,3.049890380859375,0.8909246325492859,0.21820054948329926,-0.029783150181174278
1761139677463949300,3.05994921875,0.9560778141021729,0.22721774876117706,-0.06346973776817322
1761139677474008300,3.07000830078125,0.9978039264678955,0.2109801024198532,-0.05237830802798271
1761139677484067300,3.0800673828125,1.025782585144043,0.18751631677150726,-0.01142581645399332
1761139677494126300,3.090126220703125,1.0340652465820312,0.16531209647655487,0.02787887118756771
1761139677504185000,3.10018505859375,1.0410465002059937,0.1561015546321869,0.06810565292835236
1761139677514245400,3.110245361328125,1.0444549322128296,0.1626168042421341,0.09511420875787735
1761139677524304100,3.12030419921875,1.0407509803771973,0.1815558820962906,0.1106119379401207
1761139677534363400,3.13036328125,1.037893295288086,0.19926178455352783,0.11031884700059891
1761139677544422100,3.140422119140625,1.039896011352539,0.20521900057792664,0.09601873904466629
1761139677554481200,3.150481201171875,1.037473201751709,0.19013771414756775,0.06388337165117264
1761139677564540200,3.1605400390625,1.0240657329559326,0.161184623837471,0.016625043004751205
1761139677574599200,3.17059912109375,1.0044795274734497,0.11965101212263107,-0.04498026520013809
1761139677584659500,3.180659423828125,0.9865310788154602,0.07007280737161636,-0.10557011514902115
1761139677594718200,3.19071826171875,0.9631492495536804,0.04273276403546333,-0.16432614624500275
1761139677604777200,3.200777099609375,0.9320752620697021,0.008221392519772053,-0.19888785481452942
1761139677614836200,3.210836181640625,0.9050682783126831,-0.02530541643500328,-0.20931918919086456
1761139677624895200,3.220895263671875,0.8783104419708252,-0.0630304217338562,-0.20031051337718964
1761139677634954200,3.230954345703125,0.8557438254356384,-0.10483546555042267,-0.18094725906848907
1761139677645013200,3.24101318359375,0.8357778191566467,-0.1382855623960495,-0.1732398122549057
1761139677655073300,3.2510732421875,0.8056586384773254,-0.1584371030330658,-0.1740352362394333
1761139677665132300,3.26113232421875,0.774990439414978,-0.1639048457145691,-0.18633851408958435
1761139677675191000,3.27119091796875,0.7463521361351013,-0.16282252967357635,-0.19461055099964142
1761139677685250300,3.281250244140625,0.7199801802635193,-0.1613551378250122,-0.20374758541584015
1761139677695309000,3.29130908203125,0.6962206363677979,-0.14375855028629303,-0.1883891373872757
1761139677705368300,3.301368408203125,0.677754819393158,-0.1240231990814209,-0.16861730813980103
1761139677715427000,3.311427001953125,0.6555778980255127,-0.11834539473056793,-0.1349073350429535
1761139677725487400,3.3214873046875,0.6283257007598877,-0.12250445038080215,-0.10852259397506714
1761139677735546400,3.33154638671875,0.5991110801696777,-0.14120890200138092,-0.07649408280849457
1761139677745605000,3.341605224609375,0.568157434463501,-0.18148522078990936,-0.03006906434893608
1761139677755664400,3.351664306640625,0.539716362953186,-0.21420252323150635,0.003989730030298233
1761139677765723100,3.36172314453125,0.5048348307609558,-0.20078045129776,-0.006787283346056938
1761139677775782400,3.371782470703125,0.47365033626556396,-0.1505030244588852,-0.05935632437467575
1761139677785841200,3.381841064453125,0.4421401023864746,-0.07254429906606674,-0.13430780172348022
1761139677795901200,3.391901123046875,0.4129762053489685,0.015762701630592346,-0.18751105666160583
1761139677805960200,3.401960205078125,0.3829690217971802,0.055457115173339844,-0.20589804649353027
1761139677816019200,3.412019287109375,0.3482295274734497,0.05470552295446396,-0.17468024790287018
1761139677826078200,3.422078125,0.3111865520477295,0.006354233715683222,-0.10623728483915329
1761139677836137200,3.43213720703125,0.27711305022239685,-0.0359201580286026,-0.02812373824417591
1761139677846196200,3.4421962890625,0.24607950448989868,-0.07892381399869919,0.04607699066400528
1761139677856255200,3.452255126953125,0.21203725039958954,-0.1321588009595871,0.09561658650636673
1761139677866315300,3.462315185546875,0.1740131676197052,-0.17475685477256775,0.11732827126979828
1761139677876374300,3.472374267578125,0.1340072900056839,-0.23089399933815002,0.12569022178649902
1761139677886433300,3.482433349609375,0.10187651962041855,-0.29004812240600586,0.1254446804523468
1761139677896492300,3.4924921875,0.08691128343343735,-0.35994213819503784,0.10424655675888062
1761139677906551300,3.50255126953125,0.08895658701658249,-0.4305252432823181,0.06710398197174072
1761139677916610300,3.5126103515625,0.07215303927659988,-0.47279441356658936,0.008946932852268219
1761139677926670300,3.52267041015625,0.049049049615859985,-0.4706151485443115,-0.058414261788129807
1761139677936729000,3.53272900390625,0.04470529779791832,-0.46063363552093506,-0.1344701498746872
1761139677946788400,3.542788330078125,0.037692926824092865,-0.44368499517440796,-0.2029954195022583
1761139677956847000,3.55284716796875,0.024234715849161148,-0.44020572304725647,-0.23321180045604706
1761139677966906400,3.56290625,0.005299908109009266,-0.4224741458892822,-0.23049244284629822
1761139677976965000,3.572965087890625,-0.003978151362389326,-0.3830626308917999,-0.19185109436511993
1761139677987024400,3.5830244140625,-0.0087694451212883,-0.31815874576568604,-0.13408952951431274
1761139677997084200,3.593084228515625,-0.006656556390225887,-0.19417217373847961,-0.08037874102592468
1761139678007143200,3.60314306640625,0.002740141237154603,-0.001410966506227851,-0.018238402903079987
1761139678017202200,3.6132021484375,0.020619338378310204,0.23201744258403778,0.06519491970539093
1761139678027261200,3.62326123046875,0.04267164319753647,0.4437052011489868,0.18147145211696625
1761139678037320400,3.633320556640625,0.0660012736916542,0.5728338956832886,0.33573105931282043
1761139678047379200,3.643379150390625,0.08956705033779144,0.6407386660575867,0.5147349238395691
1761139678057438500,3.6534384765625,0.09705139696598053,0.6345789432525635,0.6909692287445068
1761139678067498200,3.663498291015625,0.09297862648963928,0.5650254487991333,0.8277134895324707
1761139678077557200,3.67355712890625,0.09280771762132645,0.48029711842536926,0.9036955833435059
1761139678087616300,3.6836162109375,0.102816142141819,0.38528886437416077,0.9284847974777222
1761139678097675300,3.69367529296875,0.11859670281410217,0.28278544545173645,0.9084530472755432
1761139678107734300,3.703734375,0.12722322344779968,0.20147408545017242,0.8355208039283752
1761139678117793300,3.713793212890625,0.11406666785478592,0.09007246792316437,0.7439533472061157
1761139678127852300,3.723852294921875,0.1009354218840599,-0.03348010033369064,0.6430885195732117
1761139678137912000,3.733912109375,0.09031346440315247,-0.1300821155309677,0.5323964953422546
1761139678147970800,3.743970703125,0.07103084772825241,-0.2215302735567093,0.41986915469169617
1761139678158030000,3.754030029296875,0.04315980523824692,-0.3176199793815613,0.3034568727016449
1761139678168088800,3.7640888671875,-0.002899564802646637,-0.4125688672065735,0.19878718256950378
1761139678178148000,3.774148193359375,-0.06631182879209518,-0.49593737721443176,0.0991148054599762
1761139678188206800,3.784206787109375,-0.12269521504640579,-0.5699900388717651,0.00032830360578373075
1761139678198266000,3.79426611328125,-0.17679426074028015,-0.6147580146789551,-0.10514058917760849
1761139678208326100,3.804326171875,-0.21855129301548004,-0.6430434584617615,-0.2317584604024887
1761139678218385000,3.814385009765625,-0.25336918234825134,-0.6728994250297546,-0.3607545495033264
1761139678228444200,3.824444091796875,-0.2782692015171051,-0.6759527325630188,-0.4693646728992462
1761139678238503000,3.8345029296875,-0.28278848528862,-0.6439856290817261,-0.4987506866455078
1761139678248562200,3.844562255859375,-0.27882036566734314,-0.5958327651023865,-0.45120367407798767
1761139678258621000,3.854620849609375,-0.26351723074913025,-0.5046485662460327,-0.36142033338546753
1761139678268680200,3.86468017578125,-0.23641398549079895,-0.30523720383644104,-0.24955983459949493
1761139678278740000,3.874739990234375,-0.20143163204193115,-0.035134367644786835,-0.11527366191148758
1761139678288799000,3.884799072265625,-0.16597191989421844,0.2708686888217926,0.01325714960694313
1761139678298858000,3.89485791015625,-0.11229097843170166,0.5289099812507629,0.10526420176029205
1761139678308917000,3.9049169921875,-0.0507115013897419,0.7170210480690002,0.1690700799226761
1761139678318976000,3.91497607421875,0.01088255736976862,0.8594776391983032,0.22218000888824463
1761139678329035000,3.925034912109375,0.08008559793233871,0.9460127949714661,0.25353819131851196
1761139678339094000,3.935093994140625,0.13074851036071777,1.0080357789993286,0.2561436891555786
1761139678349154000,3.945154052734375,0.1646430939435959,1.0513925552368164,0.24036285281181335
1761139678359213000,3.955213134765625,0.17743904888629913,1.060080885887146,0.2089530974626541
1761139678369272000,3.96527197265625,0.17847608029842377,1.0251668691635132,0.18107087910175323
1761139678379331000,3.9753310546875,0.17794838547706604,0.9613354802131653,0.14462338387966156
1761139678389390000,3.98539013671875,0.16475935280323029,0.8551384806632996,0.1061452254652977
1761139678399449000,3.995448974609375,0.1377670168876648,0.6965242028236389,0.05474712699651718
1761139678409508000,4.005508056640625,0.10820112377405167,0.5325656533241272,-0.0131435077637434
1761139678419568000,4.015568115234375,0.09418391436338425,0.38839471340179443,-0.1029779464006424
1761139678429627000,4.025626953125,0.10070493072271347,0.2712891399860382,-0.22991006076335907
1761139678439686100,4.03568603515625,0.11578034609556198,0.20321957767009735,-0.3719369173049927
1761139678449745000,4.045744873046875,0.14721710979938507,0.15092360973358154,-0.5128384232521057
1761139678459804200,4.05580419921875,0.18513904511928558,0.08659562468528748,-0.6295866966247559
1761139678469863000,4.06586279296875,0.22170397639274597,0.009732268750667572,-0.714011549949646
1761139678479922200,4.075922119140625,0.26485931873321533,-0.06849274784326553,-0.7748376131057739
1761139678489982000,4.08598193359375,0.3164929449558258,-0.16231085360050201,-0.8230403065681458
1761139678500041000,4.096041015625,0.3743777573108673,-0.2732105553150177,-0.8706761002540588
1761139678510100000,4.106099853515625,0.42283424735069275,-0.39450183510780334,-0.9174262881278992
1761139678520159000,4.116158935546875,0.4605615437030792,-0.49027708172798157,-0.9535829424858093
1761139678530218200,4.12621826171875,0.4826732575893402,-0.5631036758422852,-0.9851011633872986
1761139678540277000,4.136277099609375,0.49992993474006653,-0.5977692008018494,-1.000017523765564
1761139678550336000,4.1463359375,0.5160716772079468,-0.5992429852485657,-0.9896166324615479
1761139678560396000,4.15639599609375,0.516393780708313,-0.5945784449577332,-0.9614474773406982
1761139678570455000,4.166455078125,0.5064721703529358,-0.5972152352333069,-0.9215027689933777
1761139678580514000,4.17651416015625,0.5217341184616089,-0.5675960779190063,-0.8575410842895508
1761139678590573000,4.186572998046875,0.5294644832611084,-0.5179632306098938,-0.7772281169891357
1761139678600632000,4.196632080078125,0.520057201385498,-0.4774929881095886,-0.680182158946991
1761139678610691000,4.206691162109375,0.4970456659793854,-0.4604519307613373,-0.5675232410430908
1761139678620749800,4.216749755859375,0.4588048756122589,-0.4550110697746277,-0.4557487368583679
1761139678630810000,4.22681005859375,0.41719484329223633,-0.44579121470451355,-0.3348452150821686
1761139678640868900,4.236868896484375,0.37383726239204407,-0.4353939890861511,-0.21864701807498932
1761139678650928000,4.24692822265625,0.33189114928245544,-0.4096580147743225,-0.1148894727230072
1761139678660987000,4.25698681640625,0.2926574647426605,-0.36890658736228943,-0.025944417342543602
1761139678671046100,4.267046142578125,0.2564786672592163,-0.35524481534957886,0.0613100603222847
1761139678681105000,4.27710498046875,0.21593797206878662,-0.3459664583206177,0.1560785323381424
1761139678691164000,4.287163818359375,0.1677752435207367,-0.291695237159729,0.23157356679439545
1761139678701224200,4.29722412109375,0.1390860676765442,-0.2621906101703644,0.2893303334712982
1761139678711283000,4.307282958984375,0.10990075021982193,-0.28087666630744934,0.3631174862384796
1761139678721342200,4.31734228515625,0.06956291198730469,-0.3145372271537781,0.44429031014442444
1761139678731401000,4.32740087890625,0.03265096992254257,-0.35319140553474426,0.5257875919342041
1761139678741460000,4.3374599609375,0.022102585062384605,-0.3941393494606018,0.6068771481513977
1761139678751519000,4.34751904296875,0.03748606890439987,-0.4370729625225067,0.7172347903251648
1761139678761578000,4.357577880859375,0.07946114242076874,-0.4092778265476227,0.8658758997917175
1761139678771638000,4.367637939453125,0.12841883301734924,-0.2897317111492157,1.0195744037628174
1761139678781697000,4.377697021484375,0.17397187650203705,-0.10124736279249191,1.1267952919006348
1761139678791756000,4.387756103515625,0.21503062546253204,0.0835869312286377,1.1637163162231445
1761139678801815000,4.39781494140625,0.2704738974571228,0.2436523735523224,1.1204808950424194
1761139678811873800,4.407873779296875,0.3433459997177124,0.38208431005477905,1.024362564086914
1761139678821933000,4.41793310546875,0.40745967626571655,0.4670030176639557,0.8890876770019531
1761139678831991800,4.42799169921875,0.45257842540740967,0.4782937467098236,0.7502225041389465
1761139678842052000,4.438052001953125,0.4892817735671997,0.4145907163619995,0.6229977607727051
1761139678852111000,4.448111083984375,0.5262112617492676,0.3037864565849304,0.5218554139137268
1761139678862169900,4.458169921875,0.5645163059234619,0.20643095672130585,0.456209659576416
1761139678872229000,4.46822900390625,0.5851507782936096,0.10374506562948227,0.4276038408279419
1761139678882287900,4.478287841796875,0.5608575940132141,-0.004730552900582552,0.43767407536506653
1761139678892347100,4.48834716796875,0.49306178092956543,-0.06665384024381638,0.442276269197464
1761139678902406000,4.498406005859375,0.4387964904308319,-0.1267247498035431,0.46791601181030273
1761139678912466200,4.508466064453125,0.39464953541755676,-0.15126949548721313,0.5352209806442261
1761139678922525000,4.51852490234375,0.3389400541782379,-0.044606633484363556,0.604458212852478
1761139678932584000,4.528583984375,0.2978312373161316,0.1013183444738388,0.6589504480361938
1761139678942643000,4.538642822265625,0.29242974519729614,0.22260870039463043,0.7003366947174072
1761139678952702000,4.548701904296875,0.2933677136898041,0.33545055985450745,0.6966788172721863
1761139678962761000,4.558760986328125,0.3024279773235321,0.4503239393234253,0.6568142771720886
1761139678972820000,4.568820068359375,0.3314942717552185,0.5369871854782104,0.5896301865577698
1761139678982880000,4.5788798828125,0.37444478273391724,0.6067009568214417,0.5212494730949402
1761139678992939000,4.58893896484375,0.4220900535583496,0.6968260407447815,0.46298298239707947
1761139679002998000,4.598998046875,0.4522475302219391,0.8205476999282837,0.39027515053749084
1761139679013057000,4.60905712890625,0.4819694757461548,0.9362815022468567,0.2790769934654236
1761139679023116000,4.619115966796875,0.5509799122810364,0.9989638924598694,0.18781615793704987
1761139679033175000,4.629175048828125,0.599351704120636,1.1183578968048096,0.15010952949523926
1761139679043234000,4.639234130859375,0.6157500147819519,1.2821730375289917,0.15661820769309998
1761139679053293000,4.64929296875,0.6348326802253723,1.4189860820770264,0.18338936567306519
1761139679063353000,4.65935302734375,0.702135443687439,1.3519567251205444,0.2241477072238922
1761139679073411800,4.669411865234375,0.6440585255622864,1.125501275062561,0.24987703561782837
1761139679083471000,4.67947119140625,0.5038848519325256,0.8746098875999451,0.26554206013679504
1761139679093529900,4.68952978515625,0.37145546078681946,0.605772078037262,0.2635241746902466
1761139679103589000,4.699589111328125,0.2731361389160156,0.3571513891220093,0.22287403047084808
1761139679113647900,4.70964794921875,0.22706851363182068,0.1077684536576271,0.18506886065006256
1761139679123707100,4.71970703125,0.23406757414340973,-0.1289653182029724,0.1700325906276703
1761139679133767400,4.729767333984375,0.27822625637054443,-0.2944096624851227,0.1887034773826599
1761139679143826200,4.739826171875,0.3444974720478058,-0.34072282910346985,0.2288343906402588
1761139679153885400,4.749885498046875,0.40832892060279846,-0.3058927059173584,0.24494384229183197
1761139679163944200,4.759944091796875,0.4786372184753418,-0.22995488345623016,0.2452915608882904
1761139679174003500,4.77000341796875,0.5389893054962158,-0.1431768536567688,0.21317782998085022
1761139679184062200,4.780062255859375,0.5707001686096191,-0.10649493336677551,0.16969645023345947
1761139679194121500,4.79012158203125,0.5812236666679382,-0.141425222158432,0.1393824815750122
1761139679204181500,4.800181396484375,0.5602863430976868,-0.16243748366832733,0.0999121442437172
1761139679214240300,4.810240234375,0.5174930691719055,-0.16135410964488983,0.038122549653053284
1761139679224299500,4.820299560546875,0.47325772047042847,-0.159811332821846,-0.020965538918972015
1761139679234358300,4.830358154296875,0.45041072368621826,-0.15504933893680573,-0.06477853655815125
1761139679244417500,4.84041748046875,0.4182337522506714,-0.1263299137353897,-0.08976734429597855
1761139679254476300,4.850476318359375,0.38375726342201233,-0.07091778516769409,-0.10317502915859222
1761139679264535600,4.86053564453125,0.3533087372779846,-0.011152551509439945,-0.11352337896823883
1761139679274595300,4.87059521484375,0.3281663656234741,0.051086585968732834,-0.09903950989246368
1761139679284654300,4.880654296875,0.29854729771614075,0.11465726047754288,-0.0725775957107544
1761139679294713300,4.89071337890625,0.2601620852947235,0.1326916515827179,-0.033476002514362335
1761139679304772400,4.9007724609375,0.22567974030971527,0.06249326840043068,-0.003059880342334509
1761139679314831400,4.910831298828125,0.20013442635536194,-0.051371511071920395,0.005486469715833664
1761139679324890400,4.920890380859375,0.17452721297740936,-0.13326355814933777,0.0020138677209615707
1761139679334949400,4.930949462890625,0.133780837059021,-0.094402976334095,-0.011283028870821
1761139679345009400,4.941009521484375,0.10342693328857422,0.011828982271254063,-0.028916828334331512
1761139679355068400,4.951068359375,0.07980549335479736,0.11030389368534088,-0.08135021477937698
1761139679365127400,4.96112744140625,0.06108040735125542,0.1740826964378357,-0.14644841849803925
1761139679375186400,4.9711865234375,0.023111723363399506,0.21995379030704498,-0.2145124226808548
1761139679385245400,4.981245361328125,-0.0021405755542218685,0.2165689617395401,-0.2647177278995514
1761139679395304400,4.991304443359375,-0.022520415484905243,0.18830430507659912,-0.30021342635154724
1761139679405363200,5.00136328125,-0.02229570969939232,0.11641396582126617,-0.30672821402549744
1761139679415422500,5.01142236328125,-0.008997481316328049,0.026892339810729027,-0.28755584359169006
1761139679425482200,5.021482177734375,0.011513052508234978,-0.07781191915273666,-0.2426338642835617
1761139679435541500,5.03154150390625,0.04450136050581932,-0.20099163055419922,-0.18570560216903687
1761139679445600300,5.041600341796875,0.08506795763969421,-0.31180694699287415,-0.1388106346130371
1761139679455659300,5.0516591796875,0.1197311282157898,-0.392290860414505,-0.1060529500246048
1761139679465718300,5.06171826171875,0.15550518035888672,-0.4209587574005127,-0.0937822163105011
1761139679475777300,5.07177734375,0.18057484924793243,-0.4114198684692383,-0.10032080858945847
1761139679485836300,5.081836181640625,0.20004995167255402,-0.3677225112915039,-0.11737335473299026
1761139679495896300,5.091896240234375,0.20647002756595612,-0.3114514946937561,-0.14149147272109985
1761139679505955600,5.10195556640625,0.20524977147579193,-0.2532014548778534,-0.15133260190486908
1761139679516014300,5.112014404296875,0.1969553530216217,-0.21468310058116913,-0.1348726600408554
1761139679526073300,5.1220732421875,0.18270984292030334,-0.1815212070941925,-0.08686178177595139
1761139679536132400,5.13213232421875,0.1610407680273056,-0.14798028767108917,-0.01948460564017296
1761139679546191400,5.14219140625,0.12964315712451935,-0.09700697660446167,0.039045438170433044
1761139679556250400,5.15225048828125,0.10406295955181122,-0.06418325006961823,0.0802791640162468
1761139679566309400,5.162309326171875,0.07851705700159073,-0.052630435675382614,0.10729533433914185
1761139679576369400,5.172369384765625,0.05037437006831169,-0.0749778151512146,0.13591766357421875
1761139679586428400,5.182428466796875,0.0219937302172184,-0.14243659377098083,0.16248871386051178
1761139679596487200,5.192487060546875,-0.00833514891564846,-0.24198156595230103,0.17826926708221436
1761139679606546400,5.20254638671875,-0.04055514186620712,-0.3603910505771637,0.18700949847698212
1761139679616605200,5.212605224609375,-0.07108242809772491,-0.47742366790771484,0.1979532241821289
1761139679626664400,5.22266455078125,-0.09273651987314224,-0.5618785619735718,0.19135954976081848
1761139679636723200,5.23272314453125,-0.1174999251961708,-0.5808442831039429,0.1565278023481369
1761139679646783200,5.242783203125,-0.12940725684165955,-0.5612359046936035,0.09845444560050964
1761139679656842200,5.25284228515625,-0.13014733791351318,-0.5316628217697144,0.039959169924259186
1761139679666901200,5.2629013671875,-0.1314801275730133,-0.4842780828475952,-0.015853067860007286
1761139679676960300,5.272960205078125,-0.14873793721199036,-0.43024706840515137,-0.07074135541915894
1761139679687019300,5.283019287109375,-0.18604356050491333,-0.39038529992103577,-0.13660623133182526
1761139679697078300,5.293078369140625,-0.23376022279262543,-0.3692280650138855,-0.2014443427324295
1761139679707137300,5.30313720703125,-0.2814582884311676,-0.38347163796424866,-0.2668968141078949
1761139679717197300,5.313197265625,-0.31734973192214966,-0.4335784912109375,-0.3128344714641571
1761139679727256300,5.32325634765625,-0.3589087426662445,-0.5061400532722473,-0.3436424434185028
1761139679737315300,5.3333154296875,-0.3862471580505371,-0.5478525757789612,-0.34576550126075745
1761139679747374300,5.343374267578125,-0.38910961151123047,-0.4922877252101898,-0.3170274496078491
1761139679757433300,5.353433349609375,-0.3988352119922638,-0.379300981760025,-0.26045793294906616
1761139679767492400,5.363492431640625,-0.42108821868896484,-0.2214583456516266,-0.19445279240608215
1761139679777551400,5.37355126953125,-0.44186246395111084,-0.04268885403871536,-0.13550372421741486
1761139679787610400,5.3836103515625,-0.4558088481426239,0.10817691683769226,-0.06095029413700104
1761139679797670400,5.39367041015625,-0.4504585564136505,0.20017476379871368,0.01962444558739662
1761139679807729200,5.403729248046875,-0.4304414987564087,0.23634681105613708,0.10809832811355591
1761139679817788400,5.413788330078125,-0.40808773040771484,0.22662226855754852,0.18918439745903015
1761139679827847200,5.42384716796875,-0.374691367149353,0.1965538114309311,0.2518828809261322
1761139679837906400,5.433906494140625,-0.355343759059906,0.2193336933851242,0.27492427825927734
1761139679847965200,5.443965087890625,-0.28450268507003784,0.24073217809200287,0.26620614528656006
1761139679858024400,5.4540244140625,-0.19593022763729095,0.23187263309955597,0.23601682484149933
1761139679868083200,5.464083251953125,-0.15697802603244781,0.24840544164180756,0.19886963069438934
1761139679878143200,5.474143310546875,-0.12491516768932343,0.20487767457962036,0.15667183697223663
1761139679888202500,5.484202392578125,-0.11686442792415619,0.12281030416488647,0.10339721292257309
1761139679898261200,5.49426123046875,-0.13582533597946167,0.030926451086997986,0.022541780024766922
1761139679908320500,5.504320556640625,-0.1674622893333435,-0.054981108754873276,-0.0869869515299797
1761139679918379300,5.514379150390625,-0.19863857328891754,-0.10207591950893402,-0.21934552490711212
1761139679928438500,5.5244384765625,-0.22676622867584229,-0.13345083594322205,-0.33492451906204224
1761139679938497300,5.534497314453125,-0.2547094523906708,-0.1465250849723816,-0.4145684838294983
1761139679948557300,5.544557373046875,-0.2785113751888275,-0.13342778384685516,-0.46058961749076843
1761139679958616300,5.5546162109375,-0.291855126619339,-0.12407130002975464,-0.47011521458625793
1761139679968675300,5.56467529296875,-0.29061099886894226,-0.10070748627185822,-0.4329703450202942
1761139679978734300,5.574734375,-0.28001639246940613,-0.06395106762647629,-0.3735584020614624
1761139679988793300,5.58479345703125,-0.2630559206008911,0.017663680016994476,-0.3125610649585724
1761139679998852400,5.594852294921875,-0.24284173548221588,0.10620605945587158,-0.2653173804283142
1761139680008911400,5.604911376953125,-0.21208874881267548,0.18480969965457916,-0.2273610681295395
1761139680018971400,5.614971435546875,-0.16118136048316956,0.24772076308727264,-0.1944105625152588
1761139680029030400,5.625030517578125,-0.10090404003858566,0.2950046956539154,-0.1651247888803482
1761139680039089400,5.63508935546875,-0.04625171050429344,0.3417165279388428,-0.13862234354019165
1761139680049148400,5.6451484375,-0.011243331246078014,0.36797359585762024,-0.11366809904575348
1761139680059207400,5.65520751953125,0.008250742219388485,0.3744400143623352,-0.09143869578838348
1761139680069266400,5.665266357421875,0.02309667132794857,0.3693675100803375,-0.08214665949344635
1761139680079325400,5.675325439453125,0.0370473712682724,0.3649027347564697,-0.08378662914037704
1761139680089384200,5.68538427734375,0.043270181864500046,0.35082390904426575,-0.10883472859859467
1761139680099444500,5.695444580078125,0.0420435294508934,0.3298664391040802,-0.1443714201450348
1761139680109503200,5.705503173828125,0.04720313847064972,0.3132799565792084,-0.18994800746440887
1761139680119562500,5.7155625,0.05907364562153816,0.2943893373012543,-0.23349522054195404
1761139680129621200,5.725621337890625,0.06544199585914612,0.2727738618850708,-0.2851671576499939
1761139680139679700,5.7356796875,0.070773646235466,0.25003713369369507,-0.3248642385005951
1761139680149738800,5.74573876953125,0.08220146596431732,0.23505151271820068,-0.3526955842971802
1761139680159797800,5.7557978515625,0.10515525192022324,0.22498822212219238,-0.3715478479862213
1761139680169857800,5.76585791015625,0.1307634860277176,0.21934184432029724,-0.38243532180786133
1761139680179916800,5.775916748046875,0.15882094204425812,0.22498880326747894,-0.38502976298332214
1761139680189975800,5.785975830078125,0.1906099021434784,0.22742655873298645,-0.39081692695617676
1761139680200034800,5.796034912109375,0.22037366032600403,0.22468909621238708,-0.39578506350517273
1761139680210093800,5.80609375,0.25021839141845703,0.20563684403896332,-0.3976055979728699
1761139680220152800,5.81615283203125,0.27373993396759033,0.17816287279129028,-0.40081363916397095
1761139680230211800,5.8262119140625,0.2945711314678192,0.1391560286283493,-0.4049679636955261
1761139680240270800,5.836270751953125,0.3126300275325775,0.10092661529779434,-0.4133252203464508
1761139680250330600,5.84633056640625,0.32960033416748047,0.06491278856992722,-0.4122800827026367
1761139680260390000,5.856389892578125,0.33912086486816406,0.04236247390508652,-0.4124886095523834
1761139680270448600,5.86644873046875,0.35117778182029724,0.03953733295202255,-0.4103512167930603
1761139680280508000,5.8765078125,0.37088093161582947,0.05185152590274811,-0.4087463915348053
1761139680290566700,5.886566650390625,0.3849838972091675,0.046457935124635696,-0.39782705903053284
1761139680300626000,5.8966259765625,0.4029091000556946,0.028873346745967865,-0.36640629172325134
1761139680310684700,5.9066845703125,0.4238813817501068,0.004043320193886757,-0.3186233639717102
1761139680320743700,5.91674365234375,0.44762054085731506,-0.007569393143057823,-0.2707706391811371
1761139680330804000,5.926803955078125,0.47186973690986633,-0.015271157026290894,-0.23041750490665436
1761139680340862700,5.93686279296875,0.5000116229057312,-0.02043076604604721,-0.2008817195892334
1761139680350922000,5.946921875,0.5232528448104858,-0.028120221570134163,-0.17767371237277985
1761139680360980700,5.956980712890625,0.5358064770698547,-0.040036801248788834,-0.15972080826759338
1761139680371039700,5.967039794921875,0.5464997291564941,-0.05649390444159508,-0.15657705068588257
1761139680381098800,5.9770986328125,0.5500921010971069,-0.07357648015022278,-0.1524329036474228
1761139680391157800,5.98715771484375,0.5439633727073669,-0.09590540081262589,-0.15179072320461273
1761139680401217800,5.9972177734375,0.5333948731422424,-0.12342783808708191,-0.14877469837665558
1761139680411276800,6.00727685546875,0.5177999138832092,-0.156737819314003,-0.13673533499240875
1761139680421335800,6.017335693359375,0.499538391828537,-0.1811467558145523,-0.10934578627347946
1761139680431394800,6.027394775390625,0.4835880398750305,-0.1974484622478485,-0.05668998137116432
1761139680441453600,6.03745361328125,0.46942880749702454,-0.1815405935049057,-0.0009196593891829252
1761139680451512800,6.047512939453125,0.46134939789772034,-0.13064610958099365,0.06107969209551811
1761139680461571600,6.057571533203125,0.4583624005317688,-0.05204956978559494,0.1217944324016571
1761139680471630800,6.067630859375,0.4668939411640167,0.0312346238642931,0.18386255204677582
1761139680481690600,6.077690673828125,0.47521793842315674,0.09789913892745972,0.24506838619709015
1761139680491750000,6.08775,0.491672545671463,0.15640094876289368,0.2947833836078644
1761139680501808600,6.09780859375,0.4999006390571594,0.21658305823802948,0.3255777657032013
1761139680511867600,6.10786767578125,0.5111544728279114,0.28470128774642944,0.3231334090232849
1761139680521926700,6.1179267578125,0.5291827321052551,0.31209880113601685,0.2977369725704193
1761139680531985700,6.127985595703125,0.5480197072029114,0.33977797627449036,0.26388031244277954
1761139680542044700,6.138044677734375,0.5558091998100281,0.3713792860507965,0.22255763411521912
1761139680552103700,6.148103759765625,0.5547716617584229,0.37592455744743347,0.16430503129959106
1761139680562163700,6.158163818359375,0.563418447971344,0.3315155506134033,0.08700811862945557
1761139680572222700,6.16822265625,0.5851081013679504,0.2306634485721588,-0.006028668489307165
1761139680582281700,6.17828173828125,0.6166191697120667,0.13692869246006012,-0.10220393538475037
1761139680592340700,6.1883408203125,0.6534294486045837,0.1290520280599594,-0.16240692138671875
1761139680602399700,6.198399658203125,0.7025001049041748,0.24199216067790985,-0.17803329229354858
1761139680612458800,6.208458740234375,0.7695972323417664,0.3963504433631897,-0.1643677055835724
1761139680622517800,6.218517822265625,0.7912497520446777,0.5419353246688843,-0.13837045431137085
1761139680632576800,6.22857666015625,0.720848798751831,0.6421032547950745,-0.13383165001869202
1761139680642636800,6.23863671875,0.7062232494354248,0.6342104077339172,-0.12887310981750488
1761139680652695600,6.248695556640625,0.7022338509559631,0.588573694229126,-0.11129676550626755
1761139680662754800,6.2587548828125,0.6702820658683777,0.5690849423408508,-0.06531862169504166
1761139680672813600,6.2688134765625,0.6516696214675903,0.4820992052555084,0.0414867028594017
1761139680682872800,6.278872802734375,0.6523588299751282,0.3501310646533966,0.1711416393518448
1761139680692931600,6.288931640625,0.6659558415412903,0.2776016891002655,0.2935050427913666
1761139680702990800,6.298990966796875,0.6937097311019897,0.2870873510837555,0.40181687474250793
1761139680713051000,6.30905078125,0.7415252923965454,0.3218350112438202,0.4921066462993622
1761139680723109600,6.319109619140625,0.7984199523925781,0.3189510703086853,0.5832280516624451
1761139680733169000,6.3291689453125,0.8549318313598633,0.28151607513427734,0.6548364758491516
1761139680743227600,6.3392275390625,0.8978457450866699,0.23125958442687988,0.6873244047164917
1761139680753287000,6.349286865234375,0.923724353313446,0.20094646513462067,0.6566469073295593
1761139680763345700,6.359345703125,0.9207197427749634,0.22635221481323242,0.5712332129478455
1761139680773405000,6.369405029296875,0.9072405695915222,0.22622519731521606,0.45929524302482605
1761139680783463700,6.379463623046875,0.873104453086853,0.20302347838878632,0.3417518436908722
1761139680793523700,6.389523681640625,0.8236911296844482,0.13653507828712463,0.2332363724708557
1761139680803582700,6.399582763671875,0.7785212397575378,0.024939851835370064,0.14585939049720764
1761139680813641700,6.409641845703125,0.7525911927223206,-0.12847697734832764,0.08770757168531418
1761139680823700700,6.41970068359375,0.7272895574569702,-0.3021579682826996,0.0660741850733757
1761139680833759700,6.429759765625,0.6890020370483398,-0.4262583255767822,0.043511345982551575
1761139680843818800,6.43981884765625,0.6596753001213074,-0.4628637433052063,0.00004003639332950115
1761139680853877800,6.449877685546875,0.6399698853492737,-0.41496965289115906,-0.06995630264282227
1761139680863936800,6.459936767578125,0.6374281644821167,-0.305400013923645,-0.1329011768102646
1761139680873996800,6.469996826171875,0.6403492093086243,-0.18351241946220398,-0.1528567224740982
1761139680884055800,6.480055908203125,0.6459336280822754,-0.08038391172885895,-0.1328747570514679
1761139680894114800,6.49011474609375,0.6531124711036682,-0.003619561670348048,-0.0899975448846817
1761139680904173800,6.500173828125,0.6589091420173645,0.07374873012304306,-0.038649942725896835
1761139680914232800,6.51023291015625,0.6595250368118286,0.16352985799312592,-0.0059723155573010445
1761139680924291800,6.520291748046875,0.6745132803916931,0.2553391456604004,-0.008556380867958069
1761139680934350800,6.530350830078125,0.6940736770629883,0.2645231783390045,-0.006643006578087807
1761139680944409900,6.540409912109375,0.6967142224311829,0.2575169503688812,0.00636573601514101
1761139680954469600,6.5504697265625,0.6874103546142578,0.29020005464553833,0.011261424981057644
1761139680964529000,6.56052880859375,0.6954901218414307,0.36790311336517334,-0.018595272675156593
1761139680974587600,6.570587646484375,0.7112143039703369,0.48025786876678467,-0.07938165962696075
1761139680984647000,6.58064697265625,0.7201614379882812,0.5708245635032654,-0.1382361799478531
1761139680994705700,6.59070556640625,0.7275421619415283,0.6354405283927917,-0.19444279372692108
1761139681004764700,6.6007646484375,0.7226470112800598,0.6571796536445618,-0.2465810924768448
1761139681014823700,6.61082373046875,0.7166796922683716,0.6512734889984131,-0.30702105164527893
1761139681024882700,6.620882568359375,0.7009337544441223,0.6132933497428894,-0.3837991952896118
1761139681034943000,6.63094287109375,0.6905710101127625,0.5494863390922546,-0.46208998560905457
1761139681045001700,6.641001708984375,0.6813868284225464,0.4680141806602478,-0.5400676131248474
1761139681055060700,6.651060791015625,0.6556724309921265,0.38401365280151367,-0.6038470268249512
1761139681065119700,6.66111962890625,0.6081222295761108,0.2900141775608063,-0.6583614349365234
1761139681075178800,6.6711787109375,0.545339047908783,0.17657896876335144,-0.6904889941215515
1761139681085237800,6.68123779296875,0.4807574450969696,0.055115919560194016,-0.685377836227417
1761139681095296800,6.691296875,0.42803922295570374,-0.07330198585987091,-0.6616480350494385
1761139681105355800,6.701355712890625,0.3899048864841461,-0.21241486072540283,-0.6320381760597229
1761139681115415800,6.711415771484375,0.36020785570144653,-0.3346382975578308,-0.6142890453338623
1761139681125474800,6.721474853515625,0.3445247709751129,-0.4455810785293579,-0.6163484454154968
1761139681135533800,6.731533935546875,0.32644057273864746,-0.5469229817390442,-0.6322804093360901
1761139681145592600,6.741592529296875,0.28593096137046814,-0.670227587223053,-0.6622878313064575
1761139681155651800,6.75165185546875,0.24589219689369202,-0.7731585502624512,-0.6784535646438599
1761139681165710600,6.761710693359375,0.21295900642871857,-0.8848791718482971,-0.6793347597122192
1761139681175769900,6.771769775390625,0.16937531530857086,-1.0260316133499146,-0.669989824295044
1761139681185828600,6.78182861328125,0.10563415288925171,-1.1314795017242432,-0.6565166115760803
1761139681195888600,6.791888671875,0.03519926965236664,-1.1832131147384644,-0.6391066312789917
1761139681205947600,6.80194775390625,-0.01936464011669159,-1.197888970375061,-0.6069744825363159
1761139681216006700,6.812006591796875,-0.06941543519496918,-1.1757906675338745,-0.5477080345153809
1761139681226066000,6.82206591796875,-0.10860304534435272,-1.0862478017807007,-0.46517905592918396
1761139681236124700,6.832124755859375,-0.15267188847064972,-0.91766357421875,-0.33826303482055664
1761139681246184000,6.842183837890625,-0.18915027379989624,-0.7311576008796692,-0.18405160307884216
1761139681256242700,6.85224267578125,-0.21153999865055084,-0.5656046867370605,-0.0326632596552372
1761139681266302000,6.862302001953125,-0.20510581135749817,-0.4436812102794647,0.10513961315155029
1761139681276361700,6.87236181640625,-0.19543807208538055,-0.36936378479003906,0.23296260833740234
1761139681286420700,6.882420654296875,-0.19589853286743164,-0.3482460081577301,0.35806459188461304
1761139681296479700,6.892479736328125,-0.21506603062152863,-0.36826303601264954,0.4619463086128235
1761139681306538800,6.902538818359375,-0.2541668117046356,-0.3892921507358551,0.5237149000167847
1761139681316597800,6.91259765625,-0.29272228479385376,-0.40446406602859497,0.5314546823501587
1761139681326656800,6.92265673828125,-0.32790741324424744,-0.42200708389282227,0.48646754026412964
1761139681336715800,6.9327158203125,-0.35600370168685913,-0.426161527633667,0.4225173592567444
1761139681346774800,6.94277490234375,-0.39139899611473083,-0.4456297755241394,0.3574526309967041
1761139681356834600,6.95283447265625,-0.4401836097240448,-0.49448299407958984,0.2773283123970032
1761139681366893800,6.962893798828125,-0.498070627450943,-0.5354183912277222,0.17022448778152466
1761139681376952600,6.97295263671875,-0.5570867657661438,-0.5565206408500671,0.04061201959848404
1761139681387011800,6.98301171875,-0.5982520580291748,-0.592986524105072,-0.09610588103532791
1761139681397070600,6.993070556640625,-0.608401358127594,-0.5627222061157227,-0.2086527794599533
1761139681407129900,7.0031298828125,-0.6047443151473999,-0.4133484363555908,-0.25245484709739685
1761139681417188600,7.013188720703125,-0.634067714214325,-0.1798424869775772,-0.204362154006958
1761139681427247900,7.023247802734375,-0.6613805890083313,0.04237992689013481,-0.10689286142587662
1761139681437308000,7.033307861328125,-0.6640909910202026,0.27918094396591187,0.04084083437919617
1761139681447366700,7.04336669921875,-0.6527310013771057,0.49492332339286804,0.25429800152778625
1761139681457426000,7.053426025390625,-0.6349643468856812,0.6353840231895447,0.5170009732246399
1761139681467484700,7.063484619140625,-0.6159206032752991,0.7081878781318665,0.7735903859138489
1761139681477544000,7.0735439453125,-0.5936554670333862,0.7466492652893066,0.9877448081970215
1761139681487602700,7.083602783203125,-0.5650627017021179,0.7440513968467712,1.1056184768676758
1761139681497662000,7.093661865234375,-0.5395958423614502,0.7138232588768005,1.1138253211975098
1761139681507720700,7.103720703125,-0.5123218297958374,0.6696440577507019,1.041544795036316
1761139681517780700,7.11378076171875,-0.485519140958786,0.5945660471916199,0.9392989873886108
1761139681527839700,7.12383984375,-0.4724488854408264,0.5107457637786865,0.8361071348190308
1761139681537898800,7.133898681640625,-0.474811851978302,0.42547041177749634,0.7555229663848877
1761139681547957800,7.143957763671875,-0.4764654040336609,0.31604114174842834,0.7063767313957214
1761139681558016800,7.154016845703125,-0.4947517514228821,0.18107080459594727,0.677052915096283
1761139681568075800,7.16407568359375,-0.5167472958564758,0.04616066440939903,0.6339693665504456
1761139681578134800,7.174134765625,-0.5349776744842529,-0.04616251587867737,0.5764707326889038
1761139681588193500,7.184193603515625,-0.5333060026168823,-0.10107316076755524,0.490897536277771
1761139681598253800,7.19425390625,-0.526751697063446,-0.09595178812742233,0.3754466772079468
1761139681608312800,7.204312744140625,-0.5334790945053101,-0.047162413597106934,0.2663356363773346
1761139681618371800,7.214371826171875,-0.5422106981277466,0.003947305493056774,0.17664778232574463
1761139681628430800,7.224430908203125,-0.5337167978286743,0.0641680359840393,0.12383915483951569
1761139681638489600,7.234489501953125,-0.5129140019416809,0.1230459064245224,0.1104220449924469
1761139681648548900,7.244548828125,-0.48871734738349915,0.14844393730163574,0.11676915735006332
1761139681658607600,7.254607666015625,-0.44704315066337585,0.16267117857933044,0.10957766324281693
1761139681668667000,7.2646669921875,-0.3912714719772339,0.21178439259529114,0.08481825888156891
1761139681678725600,7.2747255859375,-0.3309597671031952,0.2929573357105255,0.07533185929059982
1761139681688785700,7.28478564453125,-0.2640422284603119,0.38932064175605774,0.08117563277482986
1761139681698844700,7.2948447265625,-0.17045429348945618,0.5035278797149658,0.119868703186512
1761139681708903700,7.304903564453125,-0.05264217033982277,0.6260071992874146,0.1885681450366974
1761139681718962700,7.314962646484375,0.0713271051645279,0.7099303007125854,0.2709612250328064
1761139681729021700,7.325021728515625,0.18179796636104584,0.7448281049728394,0.35236501693725586
1761139681739080700,7.335080810546875,0.2720813751220703,0.7395528554916382,0.4045059084892273
1761139681749139700,7.3451396484375,0.36009564995765686,0.710211455821991,0.41339847445487976
1761139681759198700,7.35519873046875,0.43525776267051697,0.6670973896980286,0.3772730827331543
1761139681769258800,7.3652587890625,0.4832591116428375,0.6179996132850647,0.29480937123298645
1761139681779317800,7.37531787109375,0.5095369219779968,0.5523049831390381,0.18682317435741425
1761139681789376800,7.385376708984375,0.5179131031036377,0.510098934173584,0.057635366916656494
1761139681799435800,7.395435791015625,0.5418601632118225,0.5084354281425476,-0.09569112956523895
1761139681809494800,7.405494873046875,0.583580732345581,0.5300928354263306,-0.2774510681629181
1761139681819553800,7.4155537109375,0.6162371635437012,0.5333941578865051,-0.4858262538909912
1761139681829612800,7.42561279296875,0.64726722240448,0.5107346773147583,-0.6852874755859375
1761139681839671800,7.435671875,0.665922224521637,0.47176647186279297,-0.8467482328414917
1761139681849731600,7.445731689453125,0.6766933798789978,0.40691131353378296,-0.9816357493400574
1761139681859790800,7.455790771484375,0.692815899848938,0.33890393376350403,-1.0746313333511353
1761139681869849600,7.465849609375,0.7140258550643921,0.27066174149513245,-1.1453065872192383
1761139681879908900,7.475908935546875,0.7430997490882874,0.1535007357597351,-1.1975581645965576
1761139681889967600,7.485967529296875,0.775940477848053,0.025039970874786377,-1.2233856916427612
1761139681900027000,7.49602685546875,0.7959526181221008,-0.07223431766033173,-1.233412742614746
1761139681910085600,7.506085693359375,0.8081427216529846,-0.1302262544631958,-1.2380833625793457
1761139681920145000,7.516144775390625,0.8187441825866699,-0.16452090442180634,-1.2389100790023804
1761139681930205000,7.526204833984375,0.8277576565742493,-0.1750856637954712,-1.2366881370544434
1761139681940263700,7.536263671875,0.8408687710762024,-0.13967211544513702,-1.2419509887695312
1761139681950323000,7.546322998046875,0.8585556149482727,-0.08089881390333176,-1.2499146461486816
1761139681960381700,7.556381591796875,0.8837461471557617,-0.013137197121977806,-1.2447458505630493
1761139681970441000,7.56644091796875,0.9093447327613831,0.03673262521624565,-1.20810866355896
1761139681980499700,7.576499755859375,0.9360935091972351,0.05304398015141487,-1.142698049545288
1761139681990559000,7.58655908203125,0.9523691534996033,0.017561882734298706,-1.041245460510254
1761139682000617700,7.59661767578125,0.9530707597732544,-0.03637086972594261,-0.9313628673553467
1761139682010676700,7.6066767578125,0.9348390102386475,-0.1061084046959877,-0.8253815770149231
1761139682020736800,7.61673681640625,0.9071835875511169,-0.16384784877300262,-0.7376274466514587
1761139682030795800,7.626795654296875,0.8872234225273132,-0.21276558935642242,-0.6625409722328186
1761139682040854800,7.636854736328125,0.859250009059906,-0.25342047214508057,-0.6106768250465393
1761139682050913800,7.646913818359375,0.8344548940658569,-0.2865651249885559,-0.5671013593673706
1761139682060972800,7.656972900390625,0.8041905760765076,-0.316458135843277,-0.5239591002464294
1761139682071031800,7.66703173828125,0.7720302939414978,-0.34834417700767517,-0.4732455611228943
1761139682081090800,7.6770908203125,0.7361387014389038,-0.3633110523223877,-0.4187638759613037
1761139682091149800,7.68714990234375,0.7068463563919067,-0.363739013671875,-0.3590345084667206
1761139682101209600,7.697209716796875,0.6851989030838013,-0.3433300256729126,-0.2864363193511963
1761139682111268900,7.707268798828125,0.6562002897262573,-0.3087345063686371,-0.20140929520130157
1761139682121327600,7.71732763671875,0.6126978397369385,-0.28844398260116577,-0.11179163306951523
1761139682131387000,7.727386962890625,0.568274199962616,-0.26528671383857727,-0.02979423850774765
1761139682141446000,7.73744580078125,0.5258598923683167,-0.22871005535125732,0.031857408583164215
1761139682151504600,7.747504638671875,0.485021710395813,-0.18946412205696106,0.07431698590517044
1761139682161564000,7.75756396484375,0.43224388360977173,-0.1358504295349121,0.10859772562980652
1761139682171622700,7.76762255859375,0.37283381819725037,-0.09751874953508377,0.11445427685976028
1761139682181682000,7.777681884765625,0.32581037282943726,-0.06727004051208496,0.10097256302833557
1761139682191742000,7.787741943359375,0.3023870885372162,-0.04160728678107262,0.07981108129024506
1761139682201800700,7.79780078125,0.28179657459259033,-0.007010310422629118,0.0598694384098053
1761139682211860000,7.80785986328125,0.27155593037605286,0.027896275743842125,0.03995245695114136
1761139682221918700,7.817918701171875,0.26861509680747986,0.06388133019208908,-0.012355326674878597
1761139682231978000,7.82797802734375,0.29297128319740295,0.1289181262254715,-0.11990521848201752
1761139682242036700,7.83803662109375,0.31236982345581055,0.23311471939086914,-0.3052181899547577
1761139682252096000,7.848095947265625,0.32198622822761536,0.28341278433799744,-0.5584214329719543
1761139682262154800,7.85815478515625,0.30721086263656616,0.2289929836988449,-0.8426722884178162
1761139682272214800,7.86821484375,0.29124441742897034,0.12594595551490784,-1.079108476638794
1761139682282273800,7.878273681640625,0.2964455187320709,0.08697763830423355,-1.1914571523666382
1761139682292332800,7.888332763671875,0.2885124683380127,0.13770925998687744,-1.1591691970825195
1761139682302391800,7.898391845703125,0.23142895102500916,0.2502647340297699,-0.931145966053009
1761139682312450800,7.908450927734375,0.14593642950057983,0.23020365834236145,-0.5331959128379822
1761139682322509800,7.918509765625,0.08753423392772675,0.13575135171413422,-0.07217274606227875
1761139682332568800,7.92856884765625,0.11930441111326218,0.0796489343047142,0.37752941250801086
1761139682342627800,7.9386279296875,0.16455359756946564,0.0686296820640564,0.7757146954536438
1761139682352686800,7.948686767578125,0.20259232819080353,0.046782705932855606,1.0890394449234009
1761139682362747000,7.958746826171875,0.28893446922302246,0.14414459466934204,1.24024498462677
1761139682372806000,7.968805908203125,0.3104890286922455,0.2347882091999054,1.2674643993377686
1761139682382865000,7.978864990234375,0.4041097164154053,0.21774353086948395,1.286543369293213
1761139682392924000,7.988923828125,0.4200196862220764,-0.026693373918533325,1.2909342050552368
1761139682402983000,7.99898291015625,0.4222949147224426,-0.34372496604919434,1.2869781255722046
1761139682413042000,8.0090419921875,0.406831294298172,-0.5927914977073669,1.3025726079940796
1761139682423101000,8.019100830078125,0.37828898429870605,-0.7024644017219543,1.3386633396148682
1761139682433160000,8.029159912109375,0.3229607343673706,-0.7596120834350586,1.3293284177780151
1761139682443220000,8.039219970703124,0.26245325803756714,-0.7609850168228149,1.2907118797302246
1761139682453278700,8.04927880859375,0.22201396524906158,-0.7428515553474426,1.2620165348052979
1761139682463338000,8.059337890625,0.18770472705364227,-0.7239549160003662,1.2522674798965454
1761139682473396700,8.069396728515626,0.17479585111141205,-0.7703143954277039,1.1808663606643677
1761139682483456000,8.0794560546875,0.16245268285274506,-0.652047872543335,1.1360113620758057
1761139682493514800,8.0895146484375,0.10417260229587555,-0.4477945864200592,1.122010588645935
1761139682503574000,8.099573974609376,0.0075593735091388226,-0.28663334250450134,1.10848069190979
1761139682513632800,8.1096328125,-0.10851103812456131,-0.19194331765174866,1.0663775205612183
1761139682523692800,8.11969287109375,-0.23243045806884766,-0.12702888250350952,0.9891262054443359
1761139682533751800,8.129751708984376,-0.32493826746940613,-0.010112111456692219,0.88294917345047
1761139682543810800,8.139810791015625,-0.40614017844200134,0.12038576602935791,0.7404128313064575
1761139682553869800,8.149869873046875,-0.48440489172935486,0.27348795533180237,0.5718650817871094
1761139682563928800,8.1599287109375,-0.546829342842102,0.46198683977127075,0.3961106836795807
1761139682573987800,8.16998779296875,-0.5824781656265259,0.6376646161079407,0.21592412889003754
1761139682584046800,8.180046875,-0.6147381663322449,0.7730522751808167,0.025180282071232796
1761139682594105900,8.19010595703125,-0.6467714905738831,0.8527747988700867,-0.09283024072647095
1761139682604164900,8.200164794921875,-0.6663311719894409,0.8494041562080383,-0.1512947678565979
1761139682614225000,8.210224853515625,-0.6792552471160889,0.7688981294631958,-0.1626845747232437
1761139682624284000,8.220283935546876,-0.678048849105835,0.6548276543617249,-0.14723490178585052
1761139682634343000,8.230343017578125,-0.6530969142913818,0.5337803363800049,-0.12306484580039978
1761139682644401700,8.240401611328124,-0.6263693571090698,0.4183185398578644,-0.09018082916736603
1761139682654461000,8.2504609375,-0.5880392789840698,0.32425808906555176,-0.06165304780006409
1761139682664519700,8.260519775390625,-0.5210363864898682,0.3008398115634918,-0.09969928860664368
1761139682674579000,8.270578857421874,-0.4529417157173157,0.3573582172393799,-0.16927915811538696
1761139682684637700,8.2806376953125,-0.39233994483947754,0.4916762113571167,-0.23402443528175354
1761139682694697000,8.290697021484375,-0.33011385798454285,0.5280169248580933,-0.31045103073120117
1761139682704756700,8.3007568359375,-0.29335513710975647,0.43602025508880615,-0.39575356245040894
1761139682714815700,8.310815673828126,-0.2690194249153137,0.3723808228969574,-0.44447851181030273
1761139682724874800,8.320874755859375,-0.21298964321613312,0.3040788173675537,-0.4787530303001404
1761139682734933800,8.330933837890624,-0.13215045630931854,0.18653810024261475,-0.5110390782356262
1761139682744992800,8.34099267578125,-0.057115230709314346,0.03423941880464554,-0.535286545753479
1761139682755051800,8.3510517578125,0.024492548778653145,-0.11876823753118515,-0.543114423751831
1761139682765110800,8.36111083984375,0.12770815193653107,-0.22225356101989746,-0.5691214203834534
1761139682775169800,8.371169677734375,0.22329646348953247,-0.2810545563697815,-0.5970204472541809
1761139682785229800,8.381229736328125,0.28273144364356995,-0.2894013524055481,-0.6058260202407837
1761139682795288800,8.391288818359374,0.2859216332435608,-0.29232096672058105,-0.5937685966491699
1761139682805347800,8.401347900390626,0.26025474071502686,-0.3253563642501831,-0.5559833645820618
1761139682815406800,8.41140673828125,0.24690617620944977,-0.4693673253059387,-0.499858558177948
1761139682825465900,8.4214658203125,0.2181711494922638,-0.5543350577354431,-0.41728922724723816
1761139682835524900,8.43152490234375,0.1833425909280777,-0.5704788565635681,-0.3382721543312073
1761139682845584000,8.441583984375,0.143381729722023,-0.6021304130554199,-0.2925722301006317
1761139682855643000,8.451642822265624,0.10542608052492142,-0.6307008266448975,-0.24561883509159088
1761139682865702000,8.461701904296875,0.08029849082231522,-0.5680418014526367,-0.1783759891986847
1761139682875761700,8.47176171875,0.06955795735120773,-0.4343372583389282,-0.08794009685516357
1761139682885821000,8.481821044921874,0.030447909608483315,-0.261761337518692,0.04484660550951958
1761139682895879700,8.491879638671875,-0.039947427809238434,-0.14028151333332062,0.19052498042583466
1761139682905939000,8.50193896484375,-0.10715682059526443,-0.06960856169462204,0.328934907913208
1761139682915997700,8.511997802734374,-0.1624765396118164,-0.040052805095911026,0.4670538902282715
1761139682926057000,8.522056884765625,-0.19409257173538208,-0.016632648184895515,0.5924632549285889
1761139682936115700,8.53211572265625,-0.19524413347244263,0.01183468010276556,0.7174379229545593
1761139682946175000,8.542175048828126,-0.19109193980693817,0.05350301414728165,0.8186330199241638
1761139682956233700,8.552233642578125,-0.19328825175762177,0.06236521899700165,0.8679624795913696
1761139682966293800,8.562293701171875,-0.21799173951148987,0.019689656794071198,0.8652969598770142
1761139682976353000,8.57235302734375,-0.27700790762901306,-0.07715991884469986,0.7740709185600281
1761139682986411800,8.582411865234375,-0.3579502999782562,-0.20298905670642853,0.6215837597846985
1761139682996471000,8.592470947265625,-0.4338429272174835,-0.325020432472229,0.43822991847991943
1761139683006529800,8.60252978515625,-0.49443909525871277,-0.4599854648113251,0.2519630491733551
1761139683016588800,8.6125888671875,-0.5230763554573059,-0.5814943909645081,0.1126038208603859
1761139683026647800,8.622647705078125,-0.5189943313598633,-0.6846630573272705,0.028285209089517593
1761139683036706800,8.632706787109376,-0.5024704337120056,-0.7906824350357056,-0.015693966299295425
1761139683046765800,8.642765869140625,-0.4993831515312195,-0.8670273423194885,-0.035936444997787476
1761139683056825900,8.652825927734375,-0.5156382918357849,-0.9178013205528259,-0.041478481143713
1761139683066884900,8.662884765625,-0.5158990025520325,-0.9250052571296692,-0.02918117307126522
1761139683076944000,8.67294384765625,-0.4752197563648224,-0.8406685590744019,-0.007133928127586842
1761139683087003000,8.6830029296875,-0.4257468581199646,-0.6763969659805298,0.02769920416176319
1761139683097062000,8.693061767578126,-0.3722175657749176,-0.5490509867668152,0.04351545125246048
1761139683107120600,8.70312060546875,-0.32600367069244385,-0.46828922629356384,0.04499813914299011
1761139683117180000,8.713179931640624,-0.2856117784976959,-0.401410311460495,0.052594538778066635
1761139683127238700,8.72323876953125,-0.23845545947551727,-0.3176453113555908,0.07922167330980301
1761139683137298200,8.733298095703125,-0.1788746863603592,-0.2448560744524002,0.1117710992693901
1761139683147358200,8.743358154296875,-0.1199561133980751,-0.18606621026992798,0.13822965323925018
1761139683157417000,8.7534169921875,-0.05950981378555298,-0.12198123335838318,0.15789230167865753
1761139683167476200,8.763476318359375,0.004003856331110001,-0.13260436058044434,0.14471760392189026
1761139683177535000,8.773534912109374,0.05657412111759186,-0.20870845019817352,0.1077907383441925
1761139683187594200,8.78359423828125,0.09471996873617172,-0.275247722864151,0.04719540849328041
1761139683197653000,8.793653076171875,0.11471818387508392,-0.34429070353507996,-0.04523598775267601
1761139683207712300,8.803712158203124,0.13368986546993256,-0.4040333926677704,-0.1599860042333603
1761139683217771000,8.81377099609375,0.1450011134147644,-0.4449152946472168,-0.2568579614162445
1761139683227830300,8.823830322265625,0.1468549519777298,-0.4660225510597229,-0.33581438660621643
1761139683237890300,8.833890380859375,0.145236536860466,-0.48726871609687805,-0.37817782163619995
1761139683247949000,8.843948974609376,0.13600215315818787,-0.520993173122406,-0.39222365617752075
1761139683258008300,8.85400830078125,0.12949126958847046,-0.5797555446624756,-0.4127747416496277
1761139683268067000,8.864067138671874,0.12555257976055145,-0.6468667984008789,-0.44541803002357483
1761139683278126300,8.874126220703126,0.10862979292869568,-0.6804162263870239,-0.4899516701698303
1761139683288185000,8.88418505859375,0.0836699828505516,-0.6846046447753906,-0.5333439707756042
1761139683298244400,8.894244384765624,0.048520516604185104,-0.6784244775772095,-0.542711079120636
1761139683308303000,8.90430322265625,0.017236435785889626,-0.63211590051651,-0.5499503016471863
1761139683318363100,8.914363037109375,0.01696532592177391,-0.6483590602874756,-0.5386894345283508
1761139683328422100,8.924422119140624,0.01992715895175934,-0.621174156665802,-0.5043632984161377
1761139683338481200,8.934481201171875,0.03325175121426582,-0.519783079624176,-0.45916521549224854
1761139683348540200,8.9445400390625,0.07282519340515137,-0.3581097722053528,-0.4116480052471161
1761139683358599200,8.95459912109375,0.1479755938053131,-0.16798484325408936,-0.3590162396430969
1761139683368658200,8.964658203125,0.23355236649513245,0.02222173847258091,-0.2790631651878357
1761139683378717200,8.97471728515625,0.30402010679244995,0.13954782485961914,-0.19112613797187805
1761139683388776000,8.98477587890625,0.3600805401802063,0.18318302929401398,-0.11682756245136261
1761139683398835200,8.994835205078125,0.39204272627830505,0.18113239109516144,-0.07459941506385803
1761139683408895000,9.00489501953125,0.405444473028183,0.13614031672477722,-0.0691983625292778
1761139683418954200,9.014954345703124,0.41363635659217834,0.10720986872911453,-0.09544035792350769
1761139683429013000,9.025012939453125,0.42431050539016724,0.08175622671842575,-0.15197840332984924
1761139683439072300,9.035072265625,0.42405298352241516,0.06872324645519257,-0.24389740824699402
1761139683449131300,9.04513134765625,0.4320727288722992,0.0982784852385521,-0.34819719195365906
1761139683459190000,9.05518994140625,0.44564178586006165,0.14593522250652313,-0.45443442463874817
1761139683469249300,9.065249267578125,0.44899410009384155,0.1850932091474533,-0.5397384166717529
1761139683479308000,9.07530810546875,0.43292883038520813,0.20347701013088226,-0.5705528259277344
1761139683489367300,9.0853671875,0.41758278012275696,0.21622678637504578,-0.5394344329833984
1761139683499427000,9.095427001953125,0.4092969000339508,0.2324286550283432,-0.45516160130500793
1761139683509486000,9.105486083984376,0.40274810791015625,0.23556086421012878,-0.35310816764831543
1761139683519545000,9.115545166015625,0.393608957529068,0.20042870938777924,-0.25509583950042725
1761139683529604000,9.12560400390625,0.3875265419483185,0.14657239615917206,-0.18740522861480713
1761139683539663000,9.1356630859375,0.3956281542778015,0.1110873818397522,-0.15658313035964966
1761139683549722000,9.14572216796875,0.4132174551486969,0.08550708740949631,-0.15661892294883728
1761139683559781000,9.155781005859374,0.4352084994316101,0.05943180248141289,-0.1627867966890335
1761139683569840000,9.165840087890626,0.4365137219429016,0.05824291333556175,-0.16925592720508575
1761139683579899100,9.175899169921875,0.4424360394477844,0.030769744887948036,-0.20122265815734863
1761139683589958100,9.185958251953124,0.44618386030197144,-0.003228326328098774,-0.23917792737483978
1761139683600018000,9.196017822265626,0.4496092200279236,-0.04862190783023834,-0.26413360238075256
1761139683610077200,9.2060771484375,0.44996196031570435,-0.09482146054506302,-0.2804013788700104
1761139683620136000,9.216135986328124,0.45522385835647583,-0.12870167195796967,-0.2861354351043701
1761139683630195200,9.2261953125,0.46293380856513977,-0.16682684421539307,-0.296566903591156
1761139683640254000,9.23625390625,0.4642121195793152,-0.2620313763618469,-0.29230770468711853
1761139683650313200,9.246313232421874,0.45459651947021484,-0.4417991638183594,-0.23966997861862183
1761139683660372000,9.2563720703125,0.4494968354701996,-0.6614004969596863,-0.15509730577468872
1761139683670431200,9.26643115234375,0.44191187620162964,-0.8592612147331238,-0.060643866658210754
1761139683680490000,9.276489990234374,0.42360585927963257,-0.9688774943351746,0.035037118941545486
1761139683690550000,9.286550048828126,0.40444067120552063,-1.0078638792037964,0.10308530926704407
1761139683700609300,9.296609375,0.39008012413978577,-0.982943058013916,0.14077436923980713
1761139683710668000,9.30666796875,0.374537855386734,-0.8984610438346863,0.14568963646888733
1761139683720727300,9.316727294921876,0.36728179454803467,-0.7654987573623657,0.10563437640666962
1761139683730786000,9.3267861328125,0.3561750054359436,-0.611372172832489,0.018801642581820488
1761139683740845300,9.33684521484375,0.34482836723327637,-0.46176934242248535,-0.08790510147809982
1761139683750904000,9.346904052734375,0.33064302802085876,-0.33600690960884094,-0.20018424093723297
1761139683760963300,9.35696337890625,0.31457963585853577,-0.2561160624027252,-0.2852652966976166
1761139683771022000,9.36702197265625,0.2904758155345917,-0.1856837421655655,-0.31374573707580566
1761139683781082000,9.37708203125,0.2616947591304779,-0.0881478488445282,-0.2830544114112854
1761139683791141000,9.38714111328125,0.23394717276096344,0.013315167278051376,-0.1975564956665039
1761139683801200000,9.3972001953125,0.22261755168437958,0.12496978789567947,-0.06608662009239197
1761139683811259100,9.407259033203125,0.21307404339313507,0.26017066836357117,0.09319353103637695
1761139683821318100,9.417318115234375,0.20061443746089935,0.38514429330825806,0.23993663489818573
1761139683831377200,9.427377197265624,0.1835361272096634,0.4636420011520386,0.352993905544281
1761139683841436200,9.437436279296875,0.16502422094345093,0.526127815246582,0.41868075728416443
1761139683851495000,9.447494873046875,0.13678161799907684,0.5882312059402466,0.4209914207458496
1761139683861554200,9.45755419921875,0.10234533250331879,0.6698970198631287,0.3669279217720032
1761139683871614200,9.4676142578125,0.07598976045846939,0.7244240641593933,0.26234543323516846
1761139683881673200,9.477673095703125,0.06438770145177841,0.7817962765693665,0.16788256168365479
1761139683891732200,9.487732177734374,0.06119735911488533,0.8238866329193115,0.0978216826915741
1761139683901791000,9.497791015625,0.0665106326341629,0.8268105387687683,0.043155238032341
1761139683911850200,9.507850341796875,0.09367620944976807,0.7992165088653564,-0.00812840461730957
1761139683921909000,9.517908935546876,0.14509786665439606,0.7327408194541931,-0.02948615700006485
1761139683931968300,9.52796826171875,0.21884657442569733,0.6261254549026489,-0.030878406018018723
1761139683942027000,9.538027099609375,0.30506187677383423,0.49356263875961304,-0.015482136979699135
1761139683952086300,9.548086181640626,0.37233439087867737,0.36762291193008423,-0.013315286487340927
1761139683962146000,9.55814599609375,0.3979436159133911,0.30738887190818787,-0.014414639212191105
1761139683972205000,9.568205078125,0.3831974267959595,0.35824689269065857,0.021346449851989746
1761139683982264000,9.57826416015625,0.36261892318725586,0.4453330338001251,0.09194525331258774
1761139683992323000,9.588322998046875,0.36870285868644714,0.5010191202163696,0.1908818930387497
1761139684002382000,9.598382080078125,0.39305320382118225,0.5143029689788818,0.28322967886924744
1761139684012441000,9.608441162109376,0.4391227662563324,0.5049872398376465,0.3745661973953247
1761139684022500000,9.6185,0.499830037355423,0.5056588649749756,0.45308443903923035
1761139684032559000,9.62855908203125,0.5636919736862183,0.4941653907299042,0.4789263606071472
1761139684042618000,9.6386181640625,0.6403419971466064,0.4648652970790863,0.44188711047172546
1761139684052677000,9.648677001953125,0.7354983687400818,0.39990872144699097,0.3482176661491394
1761139684062737200,9.658737060546875,0.8091486096382141,0.29596954584121704,0.20171292126178741
1761139684072796200,9.668796142578126,0.8345620036125183,0.12585343420505524,0.037189699709415436
1761139684082855200,9.678855224609375,0.8077269196510315,-0.0805673748254776,-0.028515277430415154
1761139684092914200,9.6889140625,0.7414629459381104,-0.33968812227249146,0.02790704183280468
1761139684102973200,9.69897314453125,0.677680253982544,-0.6890056133270264,0.19570669531822205
1761139684113032200,9.7090322265625,0.62885981798172,-0.9706263542175293,0.3988015055656433
1761139684123091200,9.71909130859375,0.5847541093826294,-1.0411407947540283,0.599830687046051
1761139684133150200,9.729150146484375,0.5721781849861145,-0.9318383932113647,0.7233285903930664
1761139684143209500,9.73920947265625,0.5899800658226013,-0.6873646974563599,0.7515850067138672
1761139684153269500,9.74926953125,0.6128531098365784,-0.37158140540122986,0.6843307018280029
1761139684163328500,9.75932861328125,0.6379733681678772,-0.07897908240556717,0.5388006567955017
1761139684173387500,9.769387451171875,0.6844944953918457,0.14475132524967194,0.3453737497329712
1761139684183446500,9.779446533203124,0.7350266575813293,0.3366885483264923,0.1735955774784088
1761139684193505500,9.789505615234376,0.7831034064292908,0.4700421690940857,0.06477040797472
1761139684203564300,9.799564208984375,0.8431811332702637,0.5014755129814148,0.02300911210477352
1761139684213623600,9.80962353515625,0.8707573413848877,0.45546284317970276,0.04563362896442413
1761139684223682300,9.819682373046875,0.8675460815429688,0.38046717643737793,0.10811378061771393
1761139684233741600,9.829741455078125,0.8331198692321777,0.30227985978126526,0.16281047463417053
1761139684243800300,9.83980029296875,0.7949954271316528,0.2629447281360626,0.1675567626953125
1761139684253860400,9.8498603515625,0.7765374779701233,0.2875162661075592,0.13274222612380981
1761139684263919400,9.85991943359375,0.7486706972122192,0.34448766708374023,0.08158369362354279
1761139684273978400,9.869978271484374,0.7238870859146118,0.41158807277679443,0.0346001535654068
1761139684284037400,9.880037353515625,0.7150331735610962,0.4629055857658386,-0.005044462159276009
1761139684294096400,9.890096435546875,0.7097052931785583,0.47179102897644043,-0.022932063788175583
1761139684304155400,9.9001552734375,0.6988880634307861,0.425313264131546,-0.018118666484951973
1761139684314214400,9.91021435546875,0.6778209805488586,0.374312162399292,-0.0000724991550669074
1761139684324273400,9.9202734375,0.6590778827667236,0.3135542869567871,0.019508659839630127
1761139684334332400,9.93033251953125,0.6409838795661926,0.22858826816082,0.0403771847486496
1761139684344392400,9.940392333984375,0.6282188296318054,0.14975842833518982,0.0744486004114151
1761139684354451500,9.950451416015625,0.6253202557563782,0.1439230740070343,0.10735318809747696
1761139684364510500,9.960510498046874,0.6158723831176758,0.17349615693092346,0.10681097209453583
1761139684374569500,9.970569580078125,0.6165791153907776,0.19503569602966309,0.07967617362737656
1761139684384628500,9.98062841796875,0.6114983558654785,0.19337362051010132,0.04967460408806801
1761139684394687500,9.9906875,0.6056721806526184,0.17167316377162933,0.036595068871974945
1761139684404746500,10.00074658203125,0.6047739386558533,0.1420031636953354,0.055007632821798325
1761139684414805500,10.010805419921875,0.6113898754119873,0.11643845587968826,0.09854451566934586
1761139684424864500,10.020864501953126,0.6291043758392334,0.1050712838768959,0.1746762990951538
1761139684434923500,10.030923583984375,0.6414787173271179,0.07833574712276459,0.25935783982276917
1761139684444983600,10.040983642578125,0.6465967893600464,0.025321800261735916,0.3378460109233856
1761139684455042300,10.051042236328126,0.6402966380119324,-0.03915012627840042,0.3744998872280121
1761139684465101600,10.0611015625,0.6277558207511902,-0.08578687161207199,0.35102197527885437
1761139684475160300,10.071160400390625,0.6160732507705688,-0.12678346037864685,0.2688036561012268
1761139684485219600,10.081219482421876,0.6104353070259094,-0.10775677859783173,0.1599152535200119
1761139684495278300,10.0912783203125,0.6012705564498901,-0.017809519544243813,0.06693582236766815
1761139684505337600,10.101337646484374,0.5999901294708252,0.09715062379837036,0.02372816950082779
1761139684515396400,10.111396240234376,0.607265293598175,0.17877097427845,0.06213020905852318
1761139684525455400,10.121455322265625,0.6183410882949829,0.1826554536819458,0.13686782121658325
1761139684535515600,10.131515625,0.6530929803848267,0.10468123853206635,0.2324528992176056
1761139684545574400,10.141574462890626,0.6587873697280884,0.010024769231677055,0.31618639826774597
1761139684555633700,10.151633544921875,0.6200600862503052,-0.08484848588705063,0.3428470194339752
1761139684565692400,10.1616923828125,0.606185793876648,-0.18385949730873108,0.3229023516178131
1761139684575751400,10.17175146484375,0.5967210531234741,-0.21876206994056702,0.2584945857524872
1761139684585810400,10.181810546875,0.6020300984382629,-0.18125730752944946,0.1916780322790146
1761139684595869400,10.191869384765624,0.6340206265449524,-0.18481412529945374,0.16509686410427094
1761139684605928400,10.201928466796875,0.6536779403686523,-0.23964567482471466,0.1429137885570526
1761139684615987500,10.211987548828125,0.6565045118331909,-0.32128965854644775,0.08817944675683975
1761139684626046500,10.22204638671875,0.6407250165939331,-0.3691890239715576,0.017316455021500587
1761139684636106500,10.2321064453125,0.5922114253044128,-0.4261038303375244,-0.03430210426449776
1761139684646165200,10.242165283203125,0.5085223913192749,-0.5550764203071594,-0.0690704733133316
1761139684656224500,10.252224609375,0.4273110330104828,-0.6881508827209473,-0.0830308198928833
1761139684666283300,10.262283203125,0.35481926798820496,-0.8653699159622192,-0.09858368337154388
1761139684676342500,10.272342529296875,0.2752445936203003,-1.0882028341293335,-0.16671596467494965
1761139684686401300,10.2824013671875,0.1709301769733429,-1.2536171674728394,-0.3006332814693451
1761139684696460500,10.29246044921875,0.13550826907157898,-1.262829303741455,-0.5651336908340454
1761139684706519300,10.302519287109375,0.17693187296390533,-1.1428788900375366,-0.925894558429718
1761139684716578600,10.31257861328125,0.19538965821266174,-0.9800920486450195,-1.2225176095962524
1761139684726637300,10.32263720703125,0.1811196357011795,-0.762404203414917,-1.3959105014801025
1761139684736697300,10.332697265625,0.2242981344461441,-0.5464164018630981,-1.4864729642868042
1761139684746756600,10.342756591796874,0.2579977512359619,-0.37573498487472534,-1.486634612083435
1761139684756815400,10.3528154296875,0.28064996004104614,-0.21060986816883087,-1.3751384019851685
1761139684766874600,10.36287451171875,0.3169001042842865,-0.057299401611089706,-1.1612184047698975
1761139684776933400,10.372933349609376,0.3398832380771637,0.1146191954612732,-0.8618438839912415
1761139684786992600,10.38299267578125,0.30682143568992615,0.3194519579410553,-0.4969324767589569
1761139684797051400,10.393051513671875,0.23786740005016327,0.5278412103652954,-0.10694892704486847
1761139684807110700,10.403110595703126,0.20232297480106354,0.6663751006126404,0.2691062092781067
1761139684817169400,10.41316943359375,0.20631106197834015,0.6984862685203552,0.5783416032791138
1761139684827228700,10.423228759765625,0.21235032379627228,0.623404860496521,0.7932400703430176
1761139684837288400,10.433288330078126,0.20637471973896027,0.4868907034397125,0.9230836033821106
1761139684847347500,10.443347412109375,0.19289353489875793,0.34864068031311035,0.9591838121414185
1761139684857406500,10.453406494140625,0.18889886140823364,0.2514142692089081,0.9182766079902649
1761139684867465500,10.463465576171876,0.19121235609054565,0.19615234434604645,0.8096137642860413
1761139684877524500,10.4735244140625,0.19133543968200684,0.1606910079717636,0.6577064990997314
1761139684887583500,10.48358349609375,0.19366571307182312,0.0930565744638443,0.4932429790496826
1761139684897642500,10.493642578125,0.19124338030815125,0.007165377028286457,0.33077552914619446
1761139684907701500,10.503701416015625,0.18317373096942902,-0.06843350827693939,0.20494675636291504
1761139684917760300,10.51376025390625,0.1581382155418396,-0.12405448406934738,0.10706540942192078
1761139684927819500,10.523819580078126,0.13018594682216644,-0.13726270198822021,0.04473891854286194
1761139684937879600,10.533879638671875,0.09609900414943695,-0.10315458476543427,0.01936294138431549
1761139684947938600,10.5439384765625,0.0782475695014,-0.038298625499010086,0.008864760398864746
1761139684957997600,10.55399755859375,0.094961978495121,0.044488999992609024,0.014283006079494953
1761139684968056300,10.564056396484375,0.13661515712738037,0.15775510668754578,0.0434747152030468
1761139684978115600,10.574115478515624,0.19778242707252502,0.2770901918411255,0.0966225191950798
1761139684988174300,10.58417431640625,0.265847772359848,0.349417120218277,0.14613467454910278
1761139684998233600,10.594233642578125,0.3131839334964752,0.3682999908924103,0.1746014654636383
1761139685008292400,10.604292236328124,0.3512383699417114,0.4040832817554474,0.20100350677967072
1761139685018351600,10.6143515625,0.36536484956741333,0.4637017250061035,0.22247348725795746
1761139685028411400,10.624411376953125,0.3737833797931671,0.5535322427749634,0.24069857597351074
1761139685038470400,10.634470458984374,0.390030175447464,0.5870424509048462,0.24019911885261536
1761139685048529400,10.644529296875,0.40242132544517517,0.5636476278305054,0.23152945935726166
1761139685058588400,10.65458837890625,0.41527339816093445,0.4880807399749756,0.23390959203243256
1761139685068647400,10.6646474609375,0.43471288681030273,0.38849157094955444,0.2245512455701828
1761139685078706400,10.67470654296875,0.4518316686153412,0.2823983132839203,0.19569897651672363
1761139685088765400,10.684765380859375,0.46135035157203674,0.20828628540039062,0.14673329889774323
1761139685098824400,10.694824462890624,0.47191956639289856,0.1489717811346054,0.09182419627904892
1761139685108883500,10.704883544921875,0.4856793284416199,0.08673157542943954,0.03410443663597107
1761139685118942500,10.7149423828125,0.5039628148078918,0.06403841078281403,-0.02103056013584137
1761139685129002500,10.72500244140625,0.5366203784942627,0.08468189835548401,-0.062153227627277374
1761139685139061000,10.73506103515625,0.5783243179321289,0.1198422759771347,-0.10273527354001999
1761139685149119700,10.74511962890625,0.626660168170929,0.14393377304077148,-0.11564308404922485
1761139685159179000,10.755178955078126,0.6920396685600281,0.1448163390159607,-0.09901031106710434
1761139685169237800,10.76523779296875,0.7602427005767822,0.12332835793495178,-0.05864264443516731
1761139685179297000,10.775297119140625,0.8158466219902039,0.068984754383564,-0.01875031180679798
1761139685189355800,10.785355712890626,0.866934597492218,0.014097005128860474,-0.0070358640514314175
1761139685199415000,10.7954150390625,0.9123183488845825,-0.033819179981946945,-0.019269410520792007
1761139685209473800,10.805473876953124,0.9501727819442749,-0.06075465679168701,-0.05559839308261871
1761139685219533000,10.815532958984376,0.9772826433181763,-0.07267129421234131,-0.099337138235569
1761139685229593000,10.825593017578125,0.9922139644622803,-0.08509174734354019,-0.1484370231628418
1761139685239651800,10.83565185546875,0.9874786138534546,-0.11204932630062103,-0.20153886079788208
1761139685249711000,10.845711181640626,0.9785444736480713,-0.13904552161693573,-0.23851606249809265
1761139685259769900,10.855769775390625,0.9709920287132263,-0.16028620302677155,-0.2593149244785309
1761139685269829000,10.8658291015625,0.9584213495254517,-0.17125444114208221,-0.2577982544898987
1761139685279888000,10.875887939453126,0.9441782832145691,-0.16732275485992432,-0.24159100651741028
1761139685289947100,10.885947021484375,0.93828284740448,-0.13681171834468842,-0.21559295058250427
1761139685300006000,10.896005859375,0.9334966540336609,-0.11265850067138672,-0.19884945452213287
1761139685310065200,10.906065185546876,0.9247833490371704,-0.09847637265920639,-0.17930477857589722
1761139685320124000,10.9161240234375,0.9081737995147705,-0.09392721205949783,-0.17662914097309113
1761139685330183000,10.926182861328124,0.8961253762245178,-0.09252292662858963,-0.1743398904800415
1761139685340243000,10.936242919921876,0.8821799159049988,-0.07346805185079575,-0.18359151482582092
1761139685350302000,10.946302001953125,0.8734928965568542,-0.049824509769678116,-0.1840895265340805
1761139685360361000,10.95636083984375,0.8678568601608276,-0.025241782888770103,-0.15052340924739838
1761139685370420000,10.966419921875,0.8588380813598633,-0.011407459154725075,-0.08041862398386002
1761139685380479000,10.97647900390625,0.8500311374664307,-0.059630751609802246,-0.024913126602768898
1761139685390538000,10.9865380859375,0.8479538559913635,-0.13772448897361755,-0.01330627128481865
1761139685400596700,10.9965966796875,0.8375576734542847,-0.20207518339157104,-0.03340137004852295
1761139685410656000,11.006656005859375,0.8242229223251343,-0.25696614384651184,-0.062076423317193985
1761139685420714800,11.01671484375,0.8069146275520325,-0.3380173146724701,-0.08405788987874985
1761139685430774000,11.02677392578125,0.7806622385978699,-0.4053758382797241,-0.09052803367376328
1761139685440834000,11.036833984375,0.7393049001693726,-0.40036049485206604,-0.0783277228474617
1761139685450892800,11.046892822265624,0.695329487323761,-0.32081347703933716,-0.07464643567800522
1761139685460952000,11.0569521484375,0.6719509959220886,-0.16995756328105927,-0.0857648178935051
1761139685471010800,11.0670107421875,0.672362208366394,0.00707099586725235,-0.10571721941232681
1761139685481070000,11.077070068359374,0.6742786169052124,0.17535023391246796,-0.10716868937015533
1761139685491128800,11.08712890625,0.6646898984909058,0.3173169493675232,-0.07709148526191711
1761139685501188000,11.09718798828125,0.677604615688324,0.39279705286026,-0.015014530159533024
1761139685511246800,11.107246826171876,0.7361645698547363,0.37810707092285156,0.06390638649463654
1761139685521306000,11.11730615234375,0.7774990797042847,0.37717047333717346,0.13815590739250183
1761139685531364900,11.12736474609375,0.7941638231277466,0.3913648724555969,0.19117970764636993
1761139685541425000,11.1374248046875,0.8104327917098999,0.4193720519542694,0.21392367780208588
1761139685551484000,11.14748388671875,0.8161410093307495,0.4541931450366974,0.21981459856033325
1761139685561543000,11.15754296875,0.8098203539848328,0.46844282746315,0.22345317900180817
1761139685571602000,11.167601806640626,0.7901718020439148,0.4457753300666809,0.22473256289958954
1761139685581661000,11.177660888671875,0.7581333518028259,0.3970335125923157,0.2327466905117035
1761139685591720000,11.187719970703125,0.7237429022789001,0.3207259774208069,0.22793009877204895
1761139685601779000,11.197779052734376,0.6949138641357422,0.23794032633304596,0.21024729311466217
1761139685611838000,11.207837890625,0.6504601240158081,0.17546309530735016,0.16299563646316528
1761139685621897000,11.21789697265625,0.5911628007888794,0.14745722711086273,0.08705634623765945
1761139685631956000,11.2279560546875,0.5596901178359985,0.13979265093803406,-0.0052213822491467
1761139685642016000,11.23801611328125,0.5408334136009216,0.19017396867275238,-0.10129131376743317
1761139685652075000,11.248074951171875,0.5182625651359558,0.24148029088974,-0.1430768370628357
1761139685662134000,11.258134033203126,0.5018351674079895,0.2509974241256714,-0.16398926079273224
1761139685672193000,11.268193115234375,0.5099610090255737,0.18880143761634827,-0.19590537250041962
1761139685682252000,11.278251953125,0.5490438938140869,0.05515516549348831,-0.22822555899620056
1761139685692311000,11.28831103515625,0.61283940076828,-0.10382916033267975,-0.26404479146003723
1761139685702370000,11.2983701171875,0.6822955012321472,-0.23498418927192688,-0.32286280393600464
1761139685712429000,11.308428955078124,0.7492755651473999,-0.2787300646305084,-0.37492308020591736
1761139685722487800,11.31848779296875,0.7844370007514954,-0.19316436350345612,-0.4004729390144348
1761139685732547000,11.328547119140625,0.8024320006370544,-0.005453854333609343,-0.34888485074043274
1761139685742605800,11.338605712890624,0.8121111392974854,0.20232221484184265,-0.21240511536598206
1761139685752666000,11.348666015625,0.8310113549232483,0.35893872380256653,-0.021584289148449898
1761139685762724900,11.358724853515625,0.8590900301933289,0.43937093019485474,0.17329274117946625
1761139685772783900,11.368783935546874,0.8819639086723328,0.4446631371974945,0.313495397567749
1761139685782843000,11.3788427734375,0.887357771396637,0.4182944595813751,0.4069189429283142
1761139685792902000,11.38890185546875,0.8784774541854858,0.33442139625549316,0.4359623193740845
1761139685802961000,11.3989609375,0.8870910406112671,0.2173444926738739,0.39199766516685486
1761139685813020000,11.40902001953125,0.9001975059509277,0.1446005254983902,0.2940308749675751
1761139685823079000,11.419078857421875,0.9052452445030212,0.14655767381191254,0.15855640172958374
1761139685833138000,11.429137939453126,0.9083124399185181,0.1968916803598404,0.033445630222558975
1761139685843197000,11.439197021484375,0.8987651467323303,0.256455659866333,-0.059523988515138626
1761139685853257000,11.449257080078125,0.8870459198951721,0.31300124526023865,-0.11454117298126221
1761139685863316000,11.45931591796875,0.8844884037971497,0.3552665412425995,-0.12747091054916382
1761139685873375000,11.469375,0.8802915215492249,0.39544034004211426,-0.10224705189466476
1761139685883434000,11.47943408203125,0.8637776970863342,0.4531739354133606,-0.08606036007404327
1761139685893493000,11.489492919921876,0.8477268218994141,0.5066632628440857,-0.07494726032018661
1761139685903552000,11.499552001953125,0.8385726809501648,0.5315041542053223,-0.06560175865888596
1761139685913611000,11.509611083984375,0.8373220562934875,0.5658162832260132,-0.053540028631687164
1761139685923670000,11.519669921875,0.8523106575012207,0.6038565635681152,-0.03300370275974274
1761139685933729000,11.52972900390625,0.8557626605033875,0.6012197136878967,-0.00007611175533384085
1761139685943788000,11.5397880859375,0.8754011988639832,0.5720120668411255,0.0328238382935524
1761139685953847000,11.549846923828126,0.8929082751274109,0.48871666193008423,0.05111895501613617
1761139685963907000,11.559906982421875,0.9007612466812134,0.3866962790489197,0.052213240414857864
1761139685973965800,11.5699658203125,0.8900836110115051,0.3150591254234314,0.040673766285181046
1761139685984025000,11.580025146484376,0.8668331503868103,0.28536027669906616,0.013335034251213074
1761139685994083800,11.590083740234375,0.8393850326538086,0.2775774598121643,-0.015716589987277985
1761139686004143000,11.60014306640625,0.8224492073059082,0.2912740111351013,-0.048670120537281036
1761139686014201900,11.610201904296876,0.8133353590965271,0.28414154052734375,-0.062190186232328415
1761139686024261000,11.62026123046875,0.8054640889167786,0.2037350982427597,-0.05272397771477699
1761139686034320000,11.63031982421875,0.7991734147071838,0.08131410926580429,-0.017162254080176353
1761139686044379000,11.64037890625,0.7949961423873901,-0.04457015544176102,0.03162354975938797
1761139686054438000,11.65043798828125,0.7963594198226929,-0.12578964233398438,0.06833149492740631
1761139686064497000,11.660496826171874,0.8122940063476562,-0.14227350056171417,0.07125650346279144
1761139686074557200,11.67055712890625,0.8373415470123291,-0.11501311510801315,0.05097946524620056
1761139686084616000,11.680615966796875,0.8585947155952454,-0.06500954180955887,0.026489879935979843
1761139686094675000,11.690675048828124,0.8791567087173462,-0.01579885557293892,0.005305233411490917
1761139686104734000,11.70073388671875,0.9035841226577759,0.004740670323371887,-0.010076760314404964
1761139686114793000,11.71079296875,0.9194453954696655,0.001753401942551136,-0.004920613951981068
1761139686124852000,11.72085205078125,0.9312744140625,-0.021392017602920532,0.02302190661430359
1761139686134911000,11.730910888671875,0.9364340305328369,-0.07492634654045105,0.07256229221820831
1761139686144970000,11.740969970703125,0.9344748258590698,-0.13974711298942566,0.11994877457618713
1761139686155029000,11.751029052734374,0.9080304503440857,-0.19710521399974823,0.14903661608695984
1761139686165088000,11.761087890625,0.8670487999916077,-0.26232320070266724,0.16782350838184357
1761139686175148000,11.77114794921875,0.8276326656341553,-0.3172290623188019,0.18450528383255005
1761139686185206800,11.781206787109374,0.7812765836715698,-0.3702254891395569,0.20386722683906555
1761139686195266000,11.79126611328125,0.7412188649177551,-0.4067472815513611,0.22462044656276703
1761139686205324800,11.80132470703125,0.7040078043937683,-0.4310344457626343,0.23990783095359802
1761139686215384000,11.811384033203124,0.668320894241333,-0.481117844581604,0.250891774892807
1761139686225442800,11.82144287109375,0.6370832324028015,-0.5131848454475403,0.2548629641532898
1761139686235502000,11.831502197265625,0.6217564940452576,-0.5250649452209473,0.24574564397335052
1761139686245560800,11.841560791015626,0.6174973249435425,-0.5098568797111511,0.23648375272750854
1761139686255620000,11.8516201171875,0.6083760261535645,-0.47632715106010437,0.2174014002084732
1761139686265678800,11.861678955078125,0.6043421626091003,-0.44693589210510254,0.19181892275810242
1761139686275738000,11.871738037109376,0.5900856852531433,-0.38864433765411377,0.15807799994945526
1761139686285798100,11.881798095703125,0.5686933994293213,-0.2738395035266876,0.11074797809123993
1761139686295857000,11.89185693359375,0.5391451120376587,-0.12438397109508514,0.0594983771443367
1761139686305916200,11.901916259765626,0.507759153842926,-0.0018669110722839832,0.030701840296387672
1761139686315975000,11.911974853515625,0.47053849697113037,0.04295701906085014,0.03232689946889877
1761139686326034200,11.9220341796875,0.43594473600387573,0.039816949516534805,0.08069607615470886
1761139686336093000,11.932093017578126,0.39913612604141235,-0.016274280846118927,0.1563572734594345
1761139686346152200,11.942152099609375,0.36915814876556396,-0.08773637562990189,0.22110387682914734
1761139686356211000,11.9522109375,0.3561432957649231,-0.1419367641210556,0.2609698176383972
1761139686366270000,11.96227001953125,0.3549324870109558,-0.1649850457906723,0.27504199743270874
1761139686376329000,11.972328857421875,0.35809072852134705,-0.16570062935352325,0.27585452795028687
1761139686386388000,11.982387939453124,0.35937637090682983,-0.14517506957054138,0.2696467638015747
1761139686396448000,11.992447998046876,0.3586389422416687,-0.11452154815196991,0.26728349924087524
1761139686406507000,12.002507080078125,0.35747846961021423,-0.11752581596374512,0.26547926664352417
1761139686416566000,12.01256591796875,0.35453861951828003,-0.15072263777256012,0.2827757000923157
1761139686426625000,12.022625,0.3438631296157837,-0.1998290866613388,0.307199090719223
1761139686436683800,12.032683837890625,0.3321071267127991,-0.24384954571723938,0.3470333218574524
1761139686446743000,12.042742919921874,0.3189700245857239,-0.2738996744155884,0.38519877195358276
1761139686456801800,12.0528017578125,0.3041391372680664,-0.27232491970062256,0.41981586813926697
1761139686466861000,12.062861083984375,0.30007803440093994,-0.25027772784233093,0.43901801109313965
1761139686476919800,12.072919921875,0.29485318064689636,-0.236654594540596,0.4464857876300812
1761139686486979000,12.08297900390625,0.26438581943511963,-0.22028200328350067,0.4449171721935272
1761139686497037800,12.093037841796875,0.24446643888950348,-0.22464559972286224,0.42570993304252625
1761139686507097000,12.10309716796875,0.25216639041900635,-0.25814974308013916,0.37772244215011597
1761139686517157000,12.1131572265625,0.24866324663162231,-0.29553574323654175,0.2985016405582428
1761139686527215900,12.1232158203125,0.21823230385780334,-0.3196190297603607,0.1700376272201538
1761139686537275100,12.133275146484374,0.19770465791225433,-0.33806169033050537,0.004874499514698982
1761139686547334000,12.143333984375,0.1847459077835083,-0.32394933700561523,-0.16560135781764984
1761139686557393200,12.15339306640625,0.18167714774608612,-0.3431832194328308,-0.2951417863368988
1761139686567452000,12.163451904296876,0.193266823887825,-0.3865417540073395,-0.38129734992980957
1761139686577511200,12.17351123046875,0.2078111469745636,-0.431143581867218,-0.4115529954433441
1761139686587570000,12.18356982421875,0.2032165229320526,-0.46154308319091797,-0.3906373381614685
1761139686597629200,12.193629150390626,0.17382854223251343,-0.43607211112976074,-0.28869181871414185
1761139686607688000,12.20368798828125,0.13271060585975647,-0.34782129526138306,-0.134739488363266
1761139686617747000,12.213746826171874,0.11333823949098587,-0.23581165075302124,0.038493551313877106
1761139686627807000,12.223806884765626,0.09835530072450638,-0.12495964765548706,0.1846098005771637
1761139686637866000,12.233865966796875,0.09817899763584137,-0.05959022790193558,0.26597869396209717
1761139686647925000,12.243925048828125,0.10958091914653778,-0.02118542045354843,0.28847911953926086
1761139686657984000,12.25398388671875,0.1327006220817566,0.003418991342186928,0.2986451983451843
1761139686668043000,12.26404296875,0.14468124508857727,0.016388367861509323,0.303251713514328
1761139686678102000,12.27410205078125,0.14600111544132233,-0.016088347882032394,0.3259756863117218
1761139686688161000,12.2841611328125,0.14747390151023865,-0.05591011419892311,0.3697156310081482
1761139686698220000,12.294219970703125,0.16681590676307678,-0.09612571448087692,0.42675817012786865
1761139686708278800,12.30427880859375,0.20663349330425262,-0.1135682463645935,0.4748658537864685
1761139686718338000,12.314338134765626,0.24945153295993805,-0.1161336675286293,0.5051113963127136
1761139686728396800,12.324396728515625,0.2861936390399933,-0.11666842550039291,0.4968912601470947
1761139686738457000,12.33445703125,0.31303671002388,-0.12479186803102493,0.4475516676902771
1761139686748516000,12.34451611328125,0.33255454897880554,-0.132011279463768,0.3739601969718933
1761139686758574800,12.354574951171875,0.34145721793174744,-0.15008507668972015,0.2979077696800232
1761139686768634000,12.364634033203124,0.3397592008113861,-0.15947048366069794,0.21920159459114075
1761139686778692900,12.37469287109375,0.3297092318534851,-0.16370438039302826,0.1391400396823883
1761139686788752100,12.384752197265625,0.31447747349739075,-0.16914905607700348,0.06059081479907036
1761139686798811000,12.394810791015624,0.30762729048728943,-0.16711972653865814,-0.004869682714343071
1761139686808870100,12.4048701171875,0.30807310342788696,-0.1469108611345291,-0.0446341410279274
1761139686818929000,12.414928955078125,0.31421327590942383,-0.1383884847164154,-0.06716368347406387
1761139686828988200,12.42498828125,0.3142660856246948,-0.14045695960521698,-0.07860568910837173
1761139686839047000,12.435046875,0.31196191906929016,-0.13330450654029846,-0.09938447177410126
1761139686849107000,12.44510693359375,0.3202880620956421,-0.10272891819477081,-0.12565991282463074
1761139686859166000,12.455166015625,0.3246205151081085,-0.02857453003525734,-0.12981656193733215
1761139686869225000,12.465224853515625,0.31415608525276184,0.056925930082798004,-0.11880683898925781
1761139686879284000,12.475283935546875,0.3069298565387726,0.12671272456645966,-0.08801457285881042
1761139686889343000,12.485343017578124,0.2857680022716522,0.15286317467689514,-0.049644239246845245
1761139686899402000,12.495402099609375,0.2695046067237854,0.15256783366203308,-0.011149579659104347
1761139686909461000,12.5054609375,0.260715514421463,0.10838130116462708,0.028069304302334785
1761139686919520000,12.51552001953125,0.2626468241214752,0.06080631911754608,0.057127054780721664
