time,seconds_elapsed,z,y,x
1761140372084769500,0.07376953125,-0.29407237817943094,-0.10278788204044104,-0.14656835238225757
1761140372094829300,0.083829345703125,-0.25029578029513355,-0.04357143070101738,-0.16180829935111105
1761140372104888300,0.093888427734375,-0.2844295205652714,-0.01968348237425089,-0.1407709181498736
1761140372114948400,0.1039482421875,-0.24327274979054928,-0.007298340314626693,-0.08580861712358892
1761140372125007400,0.11400732421875,-0.10126315669119358,0.07122311547547579,-0.09006313276290893
1761140372135067400,0.1240673828125,0.10916063194274901,0.13479308584928512,-0.11861563883461057
1761140372145126400,0.13412646484375,0.2273421902090311,0.10986614986360073,-0.04753441604785621
1761140372155186400,0.1441865234375,0.29336159956157204,0.11723813993632792,0.012207155144214629
1761140372165245200,0.1542451171875,0.3993634752124548,0.18744594088941813,0.015356632151082157
1761140372175305500,0.164305419921875,0.5583879159986972,0.20488105981498955,0.015499693883582948
1761140372185364500,0.174364501953125,0.6113830086052418,0.08859598281979561,0.13456621829085053
1761140372195424300,0.18442431640625,0.635021658346057,0.006548690991103649,0.34834567402824756
1761140372205483500,0.1944833984375,0.5454045157849788,0.09340952058136463,0.5840386362142861
1761140372215542300,0.204542236328125,0.3697866675943136,0.22470219709426165,0.6784376062244176
1761140372225602300,0.214602294921875,0.30224282515347,0.28926030172258616,0.5758163859877735
1761140372235661300,0.224661376953125,0.4935843121767044,0.2501975806176662,0.36726679372787474
1761140372245721300,0.234721435546875,0.7314549106627702,0.05375321749746799,0.18468962791860102
1761140372255780400,0.2447802734375,0.8631716578066349,-0.14720219330638645,0.035343919777497644
1761140372265840400,0.25484033203125,0.7409171510130167,-0.2609992528781295,-0.22987222014330327
1761140372275899400,0.2648994140625,0.48999300968647,-0.32878771772980686,-0.4271496730867773
1761140372285959400,0.27495947265625,0.22969664438068865,-0.28126258096694945,-0.49815381204932924
1761140372296018400,0.285018310546875,0.028060557836294173,-0.1211103051945567,-0.41897922611273825
1761140372306078500,0.295078369140625,-0.04443944570720196,0.025268589030206203,-0.2660707839887589
1761140372316137200,0.30513720703125,-0.056280690148472784,0.07949176212698221,-0.031045564996451138
1761140372326197500,0.315197509765625,0.018000936114788053,0.08598229319006204,0.06603467998690903
1761140372336256300,0.32525634765625,0.060576926037669176,0.0670572279676795,0.05546374774239957
1761140372346316300,0.33531640625,0.03489420324862003,0.0174456403195858,0.0006429740786552428
1761140372356375600,0.34537548828125,0.002153378641605377,-0.02950198881626129,-0.07150543954819441
1761140372366435300,0.355435302734375,-0.010653495961427688,-0.05634644886106252,-0.1062839805278927
1761140372376494300,0.365494384765625,-0.07750877161622047,-0.0750152012348175,-0.09221358879506587
1761140372386554400,0.375554443359375,-0.15732523565292358,-0.13691782291829585,-0.07369863874353468
1761140372396613400,0.38561328125,-0.2098439429193735,-0.19389877029061317,-0.11864771447330713
1761140372406673400,0.39567333984375,-0.17258710219264028,-0.20686521936953067,-0.14191343924850225
1761140372416732400,0.405732421875,-0.08212123384773731,-0.2023281604617834,-0.05963350770771503
1761140372426792400,0.41579248046875,0.010953355690836906,-0.15870061565935611,0.026104236136749386
1761140372436851200,0.425851318359375,0.02812251715660095,-0.11059154152870178,0.07978205031044781
1761140372446911200,0.4359111328125,-0.0018079262048006056,-0.10397913765162228,0.11172463721185923
1761140372456970500,0.445970458984375,0.017206570866703987,-0.0860927678272128,0.10284319242425262
1761140372467030300,0.4560302734375,0.017203063735365866,-0.06861293297708033,0.08345876606181263
1761140372477089300,0.46608935546875,-0.0019347674548625944,-0.09336509691774844,0.019347674548625945
1761140372487148300,0.476148193359375,0.02503156540393829,-0.08344955984205008,0.036903643374890084
1761140372497208300,0.486208251953125,0.03889057940840721,-0.06188771637529134,0.048090515560656785
1761140372507267600,0.496267578125,-0.010965046128630638,-0.052069502194225785,0.07588146267533302
1761140372517327400,0.506327392578125,-0.09075637572407722,-0.06484218226671218,0.11166888843663036
1761140372527386400,0.516386474609375,-0.18538228635787962,-0.06228519126027822,0.16144852612800895
1761140372537446400,0.5264462890625,-0.22428163359463213,-0.06476824024766684,0.1934204852543771
1761140372547505400,0.53650537109375,-0.14529928229451178,-0.10744564471840858,0.1792753477849066
1761140372557565400,0.5465654296875,0.10850187577307224,-0.16132774929255247,0.18401523578837514
1761140372567624400,0.55662451171875,0.37758418960273266,-0.23519611857980488,0.2536479402672499
1761140372577684500,0.5666845703125,0.5046458044171332,-0.2638403215229511,0.27374636011794207
1761140372587743200,0.5767431640625,0.5469026453882455,-0.23873744444847106,0.2027554459631443
1761140372597803300,0.58680322265625,0.5475128862410783,-0.1408195065319538,0.07547375865727662
1761140372607862500,0.596862548828125,0.40874095988869663,-0.028545418743789193,-0.02434424072690308
1761140372617922300,0.60692236328125,0.18085341075658798,0.11366992606073617,-0.06970993443354964
1761140372627981300,0.616981201171875,0.02478898881971836,0.28990298354029653,-0.09950140771567821
1761140372638041600,0.62704150390625,-0.08199556164145469,0.44883360856324434,-0.09600333646684885
1761140372648100400,0.637100341796875,-0.20518705702424048,0.5867164771214127,-0.08784041521213948
1761140372658160400,0.647160400390625,-0.2996072159528732,0.6538213436231016,-0.09373327264301479
1761140372668219400,0.657219482421875,-0.28937925192713737,0.6953545464947819,-0.15672829267308114
1761140372678279400,0.667279541015625,-0.24320377620756625,0.679919661475718,-0.19538089860714972
1761140372688338200,0.677338134765625,-0.11991115853786467,0.6205357446148991,-0.19842698830477892
1761140372698398500,0.6873984375,-0.005585106655955315,0.5224214073434472,-0.23710977018140256
1761140372708457500,0.69745751953125,0.027132921597361564,0.43025662612617016,-0.20753135512806473
1761140372718517200,0.707517333984375,0.012661328652501105,0.38408728788644075,-0.11013692962899803
1761140372728576500,0.717576416015625,-0.0378758494079113,0.3803498549237847,-0.007558671751245856
1761140372738635300,0.72763525390625,-0.0005424363136291504,0.3704316874995827,0.04969290925599634
1761140372748695300,0.7376953125,0.1037152260184288,0.30809388926923276,0.07015892031006514
1761140372758754800,0.7477548828125,0.19813187781572342,0.18087211545705795,0.01283829265460372
1761140372768814600,0.757814697265625,0.2723760946780443,0.04670622159540653,-0.015795900351181627
1761140372778873600,0.76787353515625,0.25240941144824025,-0.08507920687049626,-0.014103490284830331
1761140372788933600,0.77793359375,0.11352467237114906,-0.17171324196755886,-0.036396278374642134
1761140372798992600,0.78799267578125,0.09293196619749068,-0.20556641173064708,-0.05904898581802845
1761140372809052700,0.798052734375,0.13526654857993126,-0.2319584518328309,-0.0732983873795718
1761140372819111700,0.808111572265625,0.24747078600227831,-0.25801322280466554,-0.04593275300487876
1761140372829171700,0.818171630859375,0.32448739018738265,-0.24297610493153332,0.027376374964416025
1761140372839230500,0.82823046875,0.3051531596422195,-0.20583470727801323,0.04486329714246094
1761140372849290500,0.83829052734375,0.18960019631385802,-0.12142682379782199,0.047474575619399544
1761140372859349800,0.848349853515625,0.07722118684649466,-0.06278904912918806,0.09427161730341613
1761140372869409500,0.858409423828125,-0.09163958829939364,-0.036595746469497675,0.12497932864762842
1761140372879468800,0.86846875,-0.2047071645528078,-0.058120180535316465,0.12953560371249914
1761140372889528600,0.878528564453125,-0.3667529989868402,-0.011881868712604046,0.10189180998355149
1761140372899587600,0.888587646484375,-0.3960808002799749,-0.017894260869920253,-0.02129464389793575
1761140372909647600,0.898647705078125,-0.31460429407656193,-0.13968144241273403,-0.07986651372350752
1761140372919706600,0.90870654296875,-0.2728787835031748,-0.24436580572426317,-0.13063077853806315
1761140372929766700,0.9187666015625,-0.1825029315292835,-0.2457721653908491,-0.1887454061154276
1761140372939825400,0.928825439453125,-0.04800502923429012,-0.2290758821338415,-0.23059110900238156
1761140372949885700,0.9388857421875,0.04369008864462375,-0.2520493459641933,-0.19981975783742964
1761140372959944700,0.94894482421875,0.02767243530154228,-0.2479454177767038,-0.1389656953588128
1761140372970003700,0.959003662109375,-0.11274608921408652,-0.14394728316366673,-0.11860343694016337
1761140372980063700,0.969063720703125,-0.3211836724668741,0.01957096191048622,-0.17575579535663127
1761140372990122500,0.97912255859375,-0.5315571922183037,0.10797814415991305,-0.16784107670933007
1761140373000182500,0.9891826171875,-0.725746469888091,0.16557313177734612,-0.093941289370507
1761140373010241800,0.99924169921875,-0.7471469853132963,0.2644505623757839,-0.02715118790641427
1761140373020301600,1.009301513671875,-0.6411901178479195,0.30590134766101834,-0.038581513459235425
1761140373030360600,1.019360595703125,-0.3800432731926441,0.23368834436535835,-0.10291633072569965
1761140373040420600,1.029420654296875,-0.042425183275341984,0.09825403800308703,-0.16079174271970986
1761140373050479600,1.039479736328125,0.24044074123501777,-0.013002397175133228,-0.21365626774914562
1761140373060539600,1.04953955078125,0.3820768248468637,-0.08291413779109716,-0.20422486092858017
1761140373070598700,1.0595986328125,0.4912076461732387,-0.11138415321111679,-0.19564787898026406
1761140373080658700,1.06965869140625,0.4514665874153375,-0.1526274332255125,-0.12399477458968758
1761140373090717400,1.079717529296875,0.26830431519448755,-0.19549656087607145,0.009073752489313483
1761140373100777700,1.08977783203125,0.060357730329036706,-0.14508797763139009,-0.00667217124029994
1761140373110836700,1.099836669921875,0.05240063384473324,-0.1435468856692314,-0.07348894151560961
1761140373120896500,1.109896484375,0.12601122897863387,-0.24389321977645156,-0.06861556332558393
1761140373130955800,1.119955810546875,0.17851181606650351,-0.353746802419424,-0.0616498159661889
1761140373141015600,1.130015625,0.21255086379051208,-0.33635055419951676,-0.1059828056242317
1761140373151074600,1.140074462890625,0.18745617002248763,-0.3218886058658361,-0.15028174688220022
1761140373161134600,1.150134521484375,0.17683248467743395,-0.30932109297662974,-0.13292378484606743
1761140373171193600,1.160193603515625,0.155890234413743,-0.29736674354970455,-0.09305011268444359
1761140373181252600,1.170252685546875,0.11241583434641361,-0.22527473628520964,-0.05242854476496577
1761140373191312600,1.180312744140625,0.07727437833845614,-0.13464023337513206,-0.0053104544330388305
1761140373201371600,1.19037158203125,0.04141746753752231,-0.05770692355930805,0.027333047279343006
1761140373211431700,1.200431640625,0.03216623958945274,0.0008972411006689071,0.025275676358118653
1761140373221490700,1.21049072265625,-0.007443301743268967,0.011657120046019553,-0.03952741600722074
1761140373231550700,1.22055078125,-0.08511866209805011,0.0138096219047904,-0.08451134385466576
1761140373241609500,1.230609375,-0.11780103451609611,0.00006079027652740478,-0.07250548343621194
1761140373251669800,1.240669677734375,-0.1112269168227911,0.03142769618183374,-0.09918306248150766
1761140373261728500,1.250728515625,-0.0822521667510271,0.027497955517470835,-0.12910276525318623
1761140373271788500,1.26078857421875,-0.009214987590909003,-0.03266512902230024,-0.1680113917749375
1761140373281847800,1.270847900390625,0.08749766618907451,-0.13751666559427975,-0.24801797155626118
1761140373291907600,1.280907470703125,0.11354162350594997,-0.15909779828339815,-0.24684235190562903
1761140373301966600,1.290966552734375,0.09704290864765644,-0.11856500462591647,-0.2261122830878943
1761140373312026600,1.301026611328125,0.028438158977031707,-0.10097001896351575,-0.16206958063580096
1761140373322085600,1.311085693359375,-0.11343640956580638,-0.09961655852794647,-0.054686625890061256
1761140373332145700,1.321145751953125,-0.38509003518819807,-0.032307109364867206,0.09575118833668529
1761140373342204700,1.33120458984375,-0.6365922686636447,0.11560030960142612,0.19618052455224094
1761140373352264700,1.3412646484375,-0.7348457221448421,0.274224937415123,0.21232574979774652
1761140373362323500,1.351323486328125,-0.6876549319028854,0.2662456290990114,0.12840952229201794
1761140373372382700,1.3613828125,-0.4941530519753694,0.1148562132358551,0.07464417596533894
1761140373382442800,1.37144287109375,-0.18043547760546205,0.06763181298524142,-0.011760580420494078
1761140373392501500,1.38150146484375,0.1214005203127861,0.004315525111556053,-0.09216543880440294
1761140373402561800,1.391561767578125,0.36013328858613963,-0.02369184123277664,-0.14705555137731133
1761140373412620500,1.40162060546875,0.36985681022107597,-0.07603782228082417,-0.11261172224469482
1761140373422680600,1.4116806640625,0.4275777623057365,-0.10283113666027784,-0.13042195809297263
1761140373432739800,1.42173974609375,0.46984804728031154,-0.10578355672508477,-0.11205277318768203
1761140373442799600,1.431799560546875,0.36097967628240585,-0.08479337566643953,-0.0036522388972342014
1761140373452858600,1.441858642578125,0.24182138193845748,-0.022288696436583995,0.07678089573308824
1761140373462918400,1.45191845703125,0.16403145529329777,0.050157238832116126,0.11970014613568782
1761140373472977700,1.461977783203125,0.17549685215950012,0.0635778614193201,0.15050802991874515
1761140373483037700,1.47203759765625,0.26437048287689685,0.07563771704733371,0.11981873101405799
1761140373493096700,1.4820966796875,0.34289690710306164,0.09340835153758525,0.089351988818869
1761140373503156700,1.49215673828125,0.44413785196244715,0.14184212757796047,0.02823978686071932
1761140373513215500,1.502215576171875,0.5057201556503772,0.14332710543870925,-0.04226414749473333
1761140373523275500,1.512275634765625,0.4476087429434061,0.08393295944482088,-0.11468787093162536
1761140373533334800,1.522334716796875,0.36261809113919735,0.07153817277401685,-0.1422708743840456
1761140373543394600,1.53239453125,0.31450609439909455,0.09116495652496814,-0.1575312796190381
1761140373553453600,1.54245361328125,0.2666168004989624,0.10067308184355497,-0.10211517041064798
1761140373563512600,1.5525126953125,0.216070270088315,0.13220774553120135,-0.0641475510660559
1761140373573572600,1.562572509765625,0.18851824629604816,0.17533289376944303,-0.02781250135935843
1761140373583631600,1.572631591796875,0.1571983944028616,0.19123685760498046,0.010311477590724824
1761140373593691600,1.582691650390625,0.13797113136351108,0.17643267170488833,0.03743848090395331
1761140373603750700,1.592750732421875,0.08698504049181938,0.12366729620099066,0.005992883739247918
1761140373613810400,1.602810546875,0.07011983040869235,0.081500763861835,-0.012996917282417416
1761140373623869700,1.61286962890625,0.038459786775708195,0.07886193979084491,0.011471899672225117
1761140373633929700,1.6229296875,-0.06710603554546833,0.02774783862531185,0.01649897058662027
1761140373643988700,1.63298876953125,-0.11889175236225127,0.0004980126500129699,0.014576331960968672
1761140373654048800,1.643048828125,-0.09119242905378341,-0.0008247603863477706,-0.009534830662421882
1761140373664107500,1.653107421875,-0.003204348999261856,-0.03636778293251991,0.030022103700228033
1761140373674167600,1.66316748046875,0.13384674490988255,0.0006757073044776916,0.011834741635248064
1761140373684226600,1.6732265625,0.26434593295753,-0.07188742460310459,-0.07447119401860981
1761140373694286600,1.68328662109375,0.18525836771726606,-0.12672726829349995,-0.04045786525774747
1761140373704345600,1.693345703125,0.1831312925606966,-0.09653729721307754,-0.07038761449940502
1761140373714405600,1.703405517578125,0.1644914740204811,-0.07764876460880041,0.006539155977778137
1761140373724464600,1.713464599609375,0.09645546414852142,-0.06992986079454422,0.12682868284136056
1761140373734523600,1.723523681640625,0.06028466509282589,-0.02882452794611454,0.13296981594488025
1761140373744583700,1.733583740234375,0.021445523610711097,0.005049684605002403,0.16568667515441773
1761140373754642700,1.743642578125,-0.008453355568647384,-0.049233109724521634,0.14415676119588314
1761140373764702700,1.75370263671875,-0.01944412066042423,-0.10983663150817155,0.12583850276023148
1761140373774762000,1.763761962890625,-0.005516717594861984,-0.15093728818148375,0.04406856656819582
1761140373784821800,1.77382177734375,0.05666705911755562,-0.16886428227722644,-0.029908012333884834
1761140373794880800,1.783880859375,0.12448796493411063,-0.21488719778358936,-0.008677958104759454
1761140373804940800,1.79394091796875,0.11612462573647499,-0.23154987103193997,0.03415558677576482
1761140373814999800,1.803999755859375,0.10805237843990326,-0.16770517536997795,0.09160780492164194
1761140373825059800,1.814059814453125,0.09454115495979785,-0.0868292654082179,0.15383629755862055
1761140373835118800,1.824118896484375,0.07020867773592472,-0.03627981238812208,0.2335192714087665
1761140373845179000,1.834178955078125,0.04819149171710014,0.035951895608007906,0.30596608346030113
1761140373855237600,1.844237548828125,0.046833647367358205,0.07983896812945604,0.3245319599814713
1761140373865298000,1.8542978515625,0.0715425566881895,0.13092735033184288,0.28163126814886924
1761140373875357000,1.86435693359375,0.0871060365229845,0.1563809405401349,0.24309827000647782
1761140373885416700,1.874416748046875,0.0936374841183424,0.1654696714028716,0.1513644275523722
1761140373895476000,1.88447607421875,0.10569266357123851,0.1464098738849163,-0.012021167585439979
1761140373905534700,1.89453466796875,0.05356792405843734,0.1427913911268115,-0.1219278321225196
1761140373915594800,1.9045947265625,0.004480944806337356,0.1518739845097065,-0.16748101122528314
1761140373925653800,1.91465380859375,-0.1003904655098915,0.201504569119215,-0.18316439111270008
1761140373935713800,1.9247138671875,-0.1957359225898981,0.21635960842370985,-0.11343670182675122
1761140373945772800,1.934772705078125,-0.2751666021794081,0.24091595753133296,-0.009116130326315761
1761140373955832800,1.944832763671875,-0.26107728655040263,0.2752700625538826,0.03211224437989294
1761140373965891800,1.954891845703125,-0.12158698279559611,0.28171821577996015,0.08527370652928948
1761140373975952000,1.964951904296875,0.1605184787362814,0.24390257212668656,0.09410290967300533
1761140373986011000,1.975010986328125,0.48805648866593837,0.1448869021013379,0.040403029797971245
1761140373996071000,1.98507080078125,0.580350741481781,-0.015270926629006861,0.008994257512316106
1761140374006129700,1.995129638671875,0.6922001741170882,-0.09221388105601072,-0.15964593368545174
1761140374016189700,2.005189697265625,0.7553215239405632,-0.17539865248203276,-0.24826938903406262
1761140374026248700,2.015248779296875,0.7917617875874042,-0.2508829325333238,-0.20012750861234962
1761140374036308700,2.025308837890625,0.7319307114809751,-0.2937210805237293,-0.22863712539039552
1761140374046368000,2.035367919921875,0.5525245769232511,-0.1874193451434374,-0.17696319838501512
1761140374056426800,2.0454267578125,0.3148006934314966,-0.11857026532292365,-0.07715447828583419
1761140374066486800,2.05548681640625,0.015649404552578926,-0.06857698488086461,0.045290728774294256
1761140374076545800,2.0655458984375,-0.22879648067057132,-0.0805792651027441,0.00619103665985167
1761140374086605800,2.075605712890625,-0.3741290807127952,-0.09166472274065017,-0.04939582600556314
1761140374096664800,2.085664794921875,-0.3622586101770401,-0.07708850037753581,-0.11874372219368814
1761140374106724900,2.095724853515625,-0.31541619498133655,-0.12270049699544906,-0.20839805495999753
1761140374116783900,2.105783935546875,-0.26216566630899907,-0.12030103463828563,-0.24249906200431287
1761140374126843600,2.11584375,-0.21684768420159817,-0.07780103256106376,-0.23357231677025556
1761140374136903000,2.12590283203125,-0.20978081455528735,-0.06542728867828845,-0.18747319422252476
1761140374146963000,2.135962890625,-0.21473405304849147,-0.019041385078430173,-0.1882073537159711
1761140374157021700,2.146021728515625,-0.28031740907132624,-0.0031882746472954747,-0.20642843538746236
1761140374167081700,2.156081787109375,-0.3527536997288465,0.04524988530725241,-0.22197079936899244
1761140374177140700,2.166140625,-0.39767420695126054,0.07835749740004538,-0.21160868756957352
1761140374187200800,2.17620068359375,-0.3497229537308216,0.1018850879818201,-0.2239377155277878
1761140374197259800,2.186259765625,-0.24838030206263065,0.049286301216483114,-0.3087698888346553
1761140374207319800,2.19631982421875,-0.15960487102270127,0.013645078992843626,-0.3048948009669781
1761140374217378800,2.20637890625,-0.1252647945255041,-0.02327273903787136,-0.31030345507748425
1761140374227437800,2.216437744140625,-0.10214110856950283,-0.048830081881582735,-0.33032113784216344
1761140374237497900,2.226497802734375,0.00038461540341377254,-0.052200142836570734,-0.35765484270863235
1761140374247556600,2.236556640625,0.1447241127550602,-0.06858166105598211,-0.35559915228784084
1761140374257616600,2.24661669921875,0.18808803818523884,-0.0111997316673398,-0.2972037350077182
1761140374267676000,2.256676025390625,0.16699439675211905,0.07486644041389226,-0.26023637874685224
1761140374277735700,2.266735595703125,0.10478782368600367,0.1274798402264714,-0.31274471074976024
1761140374287795000,2.276794921875,0.010876198801398276,0.1937862498268485,-0.2784012732516974
1761140374297855000,2.28685498046875,0.030707857474684713,0.28353841694444415,-0.2192080566573888
1761140374307913700,2.296913818359375,0.14175181894600392,0.28108693213909863,-0.1791266600292176
1761140374317973800,2.306973876953125,0.28314181884229184,0.25445085414797064,-0.18239713306725025
1761140374328032800,2.31703271484375,0.45910511946976185,0.20524843182265756,-0.1812053659994155
1761140374338092800,2.3270927734375,0.5941156474620104,0.17243074258714913,-0.16629983861669898
1761140374348151800,2.33715185546875,0.5852642324864864,0.11106032808423041,-0.20054354206733405
1761140374358211800,2.3472119140625,0.42525078066289423,0.00044102176576852795,-0.1912323275603354
1761140374368270800,2.357270751953125,0.22420096957385538,-0.07439122411757706,-0.1859605977024883
1761140374378329900,2.367329833984375,0.058493105500936504,-0.08961714256107807,-0.20237967145331204
1761140374388390000,2.377389892578125,-0.04163490968048572,-0.10298223556876182,-0.15395459017604587
1761140374398448600,2.38744873046875,-0.07695581390857696,-0.07332125679850578,-0.10508183819651604
1761140374408508700,2.3975087890625,-0.04596504783928394,-0.07550240022987127,-0.061740489924326535
1761140374418568000,2.40756787109375,-0.00803834502696991,-0.07442278829962015,-0.030491438245028257
1761140374428627700,2.417627685546875,-0.0016805004328489302,-0.09487257887125014,-0.029699484149739143
1761140374438686700,2.427686767578125,-0.03820785784125328,-0.13615882124453782,-0.0523713346850127
1761140374448746800,2.437746826171875,-0.08960720568895339,-0.14815262589901684,-0.008097747064009309
1761140374458805800,2.4478056640625,-0.12173837396502495,-0.14456044662594794,0.07924604373760522
1761140374468865800,2.45786572265625,-0.15130524471104145,-0.15545710369348525,0.15217114082537592
1761140374478924800,2.4679248046875,-0.1426455529153347,-0.13995616770088673,0.199900641053915
1761140374488984800,2.47798486328125,-0.11209317826330661,-0.0857949539244175,0.21227043941393495
1761140374499043600,2.488043701171875,-0.025782091510295868,-0.042542379914224146,0.22115765635520218
1761140374509103900,2.498103759765625,-0.00031856442987918853,-0.05549743081629276,0.22040274633467197
1761140374519163000,2.508162841796875,-0.041568274185061455,-0.0669525985494256,0.14072656755149363
1761140374529222000,2.518221923828125,-0.13797580753862856,-0.05680880567580461,0.08333543194308876
1761140374539282000,2.528281982421875,-0.23317922579944134,-0.041998482295870776,0.03867087224312126
1761140374549340700,2.538340576171875,-0.2879559411257505,0.0015773323193192482,0.05802819140292704
1761140374559400700,2.548400634765625,-0.18363865756094455,0.03769844701439142,0.10282762952893972
1761140374569460000,2.5584599609375,-0.09087152653634548,0.024468378563225267,0.09062332392893731
1761140374579519700,2.568519775390625,-0.02493278120458126,0.012877601751685142,0.051034240862354634
1761140374589578800,2.578578857421875,0.025037410622835158,0.0004489128112792969,0.011046879193186759
1761140374599638800,2.588638671875,-0.011069675546884535,-0.036680502143502235,0.0245361100371927
1761140374609697800,2.59869775390625,-0.16667700136601923,-0.04069149135053157,0.07295994920544326
1761140374619757800,2.6087578125,-0.3266641497045755,-0.004665653723478317,0.09424356025271118
1761140374629816800,2.61881689453125,-0.3541360939979553,0.04873509707450866,0.08085749752223491
1761140374639876900,2.628876953125,-0.19943126997649668,0.01846650779992342,0.015526801086217163
1761140374649935600,2.638935546875,0.06444529190361499,-0.06839198370277881,-0.022340353558585047
1761140374659995000,2.648994873046875,0.3109510322660208,-0.09423545001149176,-0.04544949953258037
1761140374670055000,2.659054931640625,0.4180792815983295,-0.07642360672801733,-0.029649726723879576
1761140374680114000,2.669114013671875,0.4405021258085966,-0.045616088271141046,-0.09328209480941295
1761140374690174000,2.679174072265625,0.4559773428380489,-0.015201660785079002,-0.16079963376522063
1761140374700232700,2.689232666015625,0.38557285026907917,-0.015056699356436729,-0.15109934687539933
1761140374710292700,2.699292724609375,0.3733399761617183,0.0278197348177433,-0.11845869470722972
1761140374720351700,2.709351806640625,0.39705052209496494,0.10292378337979316,-0.15437646884992717
1761140374730411800,2.719411865234375,0.3769160810828209,0.12815262492150067,-0.15759097391702234
1761140374740470800,2.729470703125,0.2591489488363266,0.06824848357886075,-0.17516520905233918
1761140374750530800,2.73953076171875,0.14083528862297534,-0.0038087446331977843,-0.24237894275598226
1761140374760589600,2.749589599609375,0.03831190273761749,0.009005728754401206,-0.3623616321600973
1761140374770649300,2.7596494140625,-0.06657295158207416,-0.022795769175887107,-0.43200946114286776
1761140374780708600,2.76970849609375,-0.12116788060069084,0.03321662542521953,-0.47981757956556975
1761140374790768600,2.7797685546875,-0.06099544371068477,0.09417612103968859,-0.42281873121038077
1761140374800827400,2.789827392578125,0.05259235702455044,0.13021540267020462,-0.3190281018681824
1761140374810886700,2.79988671875,0.1520440803796053,0.12323767261207103,-0.2857835655227303
1761140374820946400,2.809946533203125,0.22026363012492656,0.09715513685047626,-0.31347382874190804
1761140374831005700,2.820005615234375,0.23486907858252523,0.014588497322797775,-0.2485643533926457
1761140374841065500,2.8300654296875,0.24525486351847647,-0.052418461762368675,-0.18649353553541004
1761140374851124500,2.84012451171875,0.27741058171391486,-0.11234189232736826,-0.0860907220005989
1761140374861184500,2.8501845703125,0.37974750511646266,-0.18052637075930833,-0.01250292322039604
1761140374871243500,2.860243408203125,0.49118894147276876,-0.2536301854148507,0.05967413197904825
1761140374881303600,2.870303466796875,0.49522623416483397,-0.319697525562346,0.05850238478593528
1761140374891362300,2.8803623046875,0.3669055592000484,-0.35629327203184363,0.02824161349162459
1761140374901422600,2.890422607421875,0.24748072287440298,-0.3705459615290165,-0.04351159027256071
1761140374911481600,2.900481689453125,0.1531026495218277,-0.4303381669297814,-0.021790464590862393
1761140374921541400,2.910541259765625,0.10439385593235492,-0.44371611941903827,0.113950934959203
1761140374931600600,2.9206005859375,0.0520884991556406,-0.3795563664585352,0.25724647621586916
1761140374941659400,2.930659423828125,-0.010623685345053672,-0.3242465671688318,0.33434798220545053
1761140374951719400,2.940719482421875,-0.059953241181373594,-0.22703414717316625,0.3995695922438055
1761140374961778400,2.9507783203125,-0.08409399522542953,-0.14639642988145352,0.41862580956518647
1761140374971838500,2.96083837890625,-0.1346107150197029,-0.10732260286062956,0.388343264830485
1761140374981897500,2.9708974609375,-0.20513620361983775,-0.06371785441190005,0.2530697019878775
1761140374991957500,2.98095751953125,-0.2894371195942163,0.022678572537004945,0.11704670901745558
1761140375002016500,2.9910166015625,-0.36828503085970876,0.07747866873890161,0.011039134278148411
1761140375012076500,3.00107666015625,-0.44711014577150343,0.17283377043008805,-0.056671516096964476
1761140375022135600,3.011135498046875,-0.48506256754696364,0.21522826630622147,-0.12547208060063422
1761140375032195600,3.021195556640625,-0.49281391232609745,0.2428711832523346,-0.15723806882612407
1761140375042254300,3.03125439453125,-0.46980362361669536,0.3050760027527809,-0.11571999045833944
1761140375052314600,3.041314697265625,-0.47357262076139445,0.378836820012331,-0.07436703952439129
1761140375062373400,3.051373291015625,-0.47094227225780483,0.37046412846446036,-0.043720483782887454
1761140375072432600,3.0614326171875,-0.4084165502399206,0.4059568821281194,-0.03030285687036812
1761140375082492700,3.07149267578125,-0.27871874170303346,0.41081133642196654,-0.01067147000953555
1761140375092551400,3.081551513671875,-0.14302549214363097,0.3694093587145209,-0.007285992289707065
1761140375102611500,3.091611572265625,-0.0008434650868177413,0.3499950486704707,-0.04464885067418217
1761140375112670500,3.10167041015625,0.11612053408324718,0.32384646193534133,-0.09204809603504836
1761140375122730500,3.11173046875,0.24990882680416104,0.24004092826247214,-0.09213891612365842
1761140375132789500,3.12178955078125,0.3558312074780464,0.15590250937342642,-0.06626074382774531
1761140375142849500,3.131849609375,0.44288346798717976,0.09528379002064466,0.005909297109022736
1761140375152908500,3.141908447265625,0.4960457338541746,0.01991729113012552,0.03622983576655388
1761140375162968300,3.15196826171875,0.510869793498516,-0.04170651361197233,0.11290493303760886
1761140375173027600,3.162027587890625,0.5317278726100921,-0.0835071352481842,0.19723960515111683
1761140375183087600,3.172087646484375,0.5514917267441749,-0.12862725669592617,0.20575864636711774
1761140375193146400,3.182146484375,0.5688830065280198,-0.16056027205139398,0.19852482265606522
1761140375203205600,3.19220556640625,0.5517231974124908,-0.1985726073205471,0.21360183414816855
1761140375213265400,3.202265380859375,0.475181225001812,-0.26606296600848434,0.1979514797475189
1761140375223324400,3.212324462890625,0.34056992546021936,-0.3157850282937288,0.17262480385452508
1761140375233384700,3.222384765625,0.2224322063356638,-0.29734131684750315,0.14346454114802182
1761140375243443500,3.232443359375,0.08512918349206447,-0.28950492413342,0.11397811522707342
1761140375253503500,3.24250341796875,-0.04593757531046867,-0.29866788927614685,0.09893098741658031
1761140375263562500,3.2525625,-0.11749883669912814,-0.3216372614532709,0.10955978732816875
1761140375273622500,3.26262255859375,-0.13622224186956883,-0.3044762832939625,0.103171182269603
1761140375283681300,3.272681396484375,-0.16631518231630324,-0.28515374318659303,0.13419796950034796
1761140375293741600,3.282741455078125,-0.18047347152829168,-0.27391017237752674,0.16392521843984723
1761140375303800600,3.292800537109375,-0.21089491327702997,-0.2799354240164161,0.0981052041169256
1761140375313860400,3.3028603515625,-0.22786241469085214,-0.2853758615046739,0.04893186175562441
1761140375323919600,3.312919677734375,-0.19942016406059265,-0.27743133224099875,-0.02083243321366608
1761140375333978400,3.322978271484375,-0.15040332743525503,-0.2968570404618978,-0.060156873994693154
1761140375344038400,3.333038330078125,-0.17898527879714965,-0.24486527967900037,-0.06732873838543892
1761140375354097700,3.34309765625,-0.14254267706274987,-0.15393267060518265,-0.07336911452822387
1761140375364157400,3.353157470703125,-0.10519289735555648,-0.11329086361527442,-0.03143587948828935
1761140375374216400,3.363216552734375,-0.12141513336002827,-0.07416355284154415,0.0008375468026846647
1761140375384276500,3.3732763671875,-0.12794307382404804,0.0009618307694792747,-0.009973185547068714
1761140375394335500,3.38333544921875,-0.10229776043593883,0.04849105918556452,-0.042933059732243414
1761140375404395500,3.3933955078125,-0.13061901503503323,0.07647153752297163,-0.057817398196458814
1761140375414454500,3.40345458984375,-0.21611703183948994,0.07651771475225687,-0.08688179931305348
1761140375424514600,3.4135146484375,-0.2508253571271896,0.09044541007876396,-0.11299882186613976
1761140375434573300,3.4235732421875,-0.23321721972227094,0.09971943438053131,-0.1357866999965161
1761140375444633600,3.433633544921875,-0.04676876543760299,0.1401923145443201,-0.11489398796297609
1761140375454692600,3.443692626953125,0.20949732143878935,0.12107844875156878,-0.07951601978540421
1761140375464751400,3.45375146484375,0.4241635699480772,0.10242255585938692,-0.052587096327543256
1761140375474811600,3.463811767578125,0.5035550865709781,0.05335720391720533,-0.062142275658249854
1761140375484870400,3.473870361328125,0.45124330005347724,0.057306818325817584,-0.08464856036826968
1761140375494930400,3.483930419921875,0.3999725470215082,0.07724749033153057,-0.11206570573449134
1761140375504989700,3.49398974609375,0.39531975277960296,0.08275836270749569,-0.06833886527605354
1761140375515049500,3.504049560546875,0.34995910057425494,0.06733662943094969,0.039970483599603174
1761140375525108500,3.5141083984375,0.1969733554303646,0.09394728071987628,0.14058745134174824
1761140375535168500,3.52416845703125,0.09268822056949139,0.16285685855597257,0.12224252409487962
1761140375545227500,3.5342275390625,0.18611878393888473,0.15912410176843403,0.09169592159651219
1761140375555287600,3.54428759765625,0.26822248212993144,0.024494682048261163,0.17615370863303542
1761140375565346600,3.5543466796875,0.2773398545652628,-0.045747313435375685,0.19414419641904532
1761140375575405600,3.564405517578125,0.2796814492553472,0.0002291325807571411,0.1280718878354877
1761140375585465300,3.57446533203125,0.27060557787418366,-0.0005222703084349631,0.08159180314615368
1761140375595524600,3.584524658203125,0.22065701335668564,-0.053659693995118135,0.08894581917077303
1761140375605584600,3.594584716796875,0.13263210842311382,-0.14023176977187393,-0.003427197969704866
1761140375615643400,3.604643310546875,-0.01651449694931507,-0.20940964315533636,-0.095859909408167
1761140375625703700,3.61470361328125,-0.1584223832398653,-0.2649398071974516,-0.200825281618163
1761140375635762400,3.624762451171875,-0.2379553541600704,-0.27328035004138945,-0.2536602882921696
1761140375645822500,3.634822509765625,-0.18169687584340571,-0.25945436152368784,-0.2968745030533522
1761140375655881500,3.644881591796875,0.023797055172920224,-0.31878333332687614,-0.26200214631035923
1761140375665941500,3.65494140625,0.12574527151882647,-0.3837225462272763,-0.07520122532621025
1761140375676000500,3.66500048828125,0.13239596157968042,-0.3766132987439632,0.051187897054105994
1761140375686059500,3.6750595703125,0.3110369569838047,-0.29499329241663214,0.07692446892224251
1761140375696119600,3.68511962890625,0.47238136515021323,-0.14715163216292856,0.2124719533354044
1761140375706178300,3.69517822265625,0.60435530192554,-0.29940409459620715,0.30044110949374736
1761140375716238600,3.705238525390625,0.7142559385806322,-0.22694354628026484,0.22347440886497497
1761140375726297600,3.715297607421875,0.8439414721578359,-0.25190380001366136,0.2821308882340789
1761140375736357400,3.725357421875,0.8567401634544134,-0.3037830403327942,0.18616079644970596
1761140375746416600,3.735416748046875,0.7378057409942149,-0.27028029144257304,0.04640716558359563
1761140375756476000,3.745475830078125,0.3667623513370752,-0.20169716908186672,-0.0849538269251585
1761140375766535000,3.755534912109375,-0.19379121826291082,0.049346799232065676,-0.16786255788877605
1761140375776595000,3.765594970703125,-0.6872369987517595,0.35518209591954947,-0.30665808431245384
1761140375786654000,3.775654052734375,-0.9637743047624826,0.4932748078361153,-0.3806413121510297
1761140375796713700,3.785713623046875,-1.1007365513443945,0.5721475612819195,-0.28650698442645367
1761140375806773000,3.79577294921875,-1.1244564496278762,0.6655296093344688,-0.12892623964250086
1761140375816831700,3.805831787109375,-0.9934808762401341,0.7963906164318323,-0.06021598377078771
1761140375826891800,3.815891845703125,-0.6929875251024961,0.9218529793560505,-0.05508125123083591
1761140375836950800,3.82595068359375,-0.34984628784954547,0.9346697908312082,-0.09076309772580861
1761140375847010800,3.8360107421875,0.032110710009932514,0.9116443045526742,-0.13528971025981007
1761140375857070000,3.846070068359375,0.31542204020023346,0.7904393068119883,-0.17077267318181694
1761140375867129900,3.8561298828125,0.4270107760727405,0.6112871470153332,-0.2336949202366173
1761140375877188900,3.86618896484375,0.4136895222067833,0.476264636324346,-0.2185425784859806
1761140375887249000,3.876248779296875,0.29713001218438145,0.3764168993890285,-0.16426760213673114
1761140375897308000,3.886307861328125,0.199988319337368,0.284806829445064,-0.10279591921642423
1761140375907368000,3.896367919921875,0.2633680278360844,0.2464499185219407,-0.05536525580398738
1761140375917427000,3.906427001953125,0.3571539805144071,0.1857560881063342,-0.03753149294964969
1761140375927486000,3.91648583984375,0.48016310506761073,0.10925795483738183,-0.05655212750099599
1761140375937545700,3.926545654296875,0.6005196692854166,0.032037644773721695,-0.09358180840834975
1761140375947605000,3.93660498046875,0.6278314545810222,-0.023078093248605727,-0.11990355975329875
1761140375957665000,3.9466650390625,0.5538724844008683,-0.11558891142457722,-0.08167816625535487
1761140375967723800,3.956723876953125,0.42685003255307674,-0.21668226450681685,-0.05541990860067308
1761140375977783800,3.96678369140625,0.20011691415309904,-0.39572628775388,-0.06549691984839737
1761140375987842800,3.9768427734375,-0.01918225485384464,-0.5189455479264259,-0.15014270373769104
1761140375997902800,3.98690283203125,-0.1970820765018463,-0.5725467897325753,-0.3046061202187091
1761140376007962000,3.996962158203125,-0.30648937668204307,-0.634333383820951,-0.41942170918323096
1761140376018022000,4.00702197265625,-0.32649639192223545,-0.6581739858746528,-0.45716801392734047
1761140376028081000,4.017080810546875,-0.3723468734711408,-0.664106298533082,-0.5099780322905629
1761140376038140000,4.027139892578125,-0.3866688288122415,-0.6985732162803411,-0.619522329788655
1761140376048200000,4.037199951171875,-0.3596446282863617,-0.6582607873752713,-0.674188424347341
1761140376058258700,4.0472587890625,-0.27151567845642566,-0.6154793380081653,-0.5765094097532332
1761140376068318700,4.057318603515625,-0.26305940027832986,-0.6523416264593601,-0.32106625663228333
1761140376078378000,4.0673779296875,-0.46194005063474175,-0.4746604159981012,-0.11674370748288929
1761140376088437800,4.077437744140625,-0.5644283652067185,-0.26895371901392934,0.03244944044500589
1761140376098497000,4.0874970703125,-0.49949265943765636,-0.13013590769320726,0.23137144572511315
1761140376108557000,4.09755712890625,-0.32901217413544653,0.04393295748978853,0.3089859427381307
1761140376118615800,4.10761572265625,-0.13023323058784006,0.24998919856399296,0.21671273271031677
1761140376128675800,4.11767578125,0.1024514896929264,0.23786709135472772,0.17705263023413717
1761140376138734800,4.12773486328125,0.35757542079687116,0.151703304117918,0.19943024706318974
1761140376148793900,4.1377939453125,0.5001157597720622,0.14118044879883526,0.13966748695261777
1761140376158854000,4.14785400390625,0.5612544113457203,0.13606588226407765,-0.05856156762726605
1761140376168913000,4.157912841796875,0.5858651209890842,0.07191022095680237,-0.2525920014735311
1761140376178973000,4.167972900390625,0.559740499651432,0.08599456814974546,-0.4243656683914363
1761140376189032000,4.178031982421875,0.540185904353857,0.1976613376945257,-0.5269112661086023
1761140376199092000,4.188092041015625,0.48321197124421594,0.30166999370157715,-0.50156778521128
1761140376209150700,4.198150634765625,0.4913268886387348,0.41691754434257744,-0.37367680690065025
1761140376219210800,4.208210693359375,0.6437088226705789,0.4513499752983451,-0.07085552427209914
1761140376229270000,4.21827001953125,0.9327057972818612,0.4551727484568953,0.23419614775702355
1761140376239329800,4.228329833984375,1.2186702723294496,0.3945779945015907,0.45076077723354097
1761140376249389000,4.23838916015625,1.3757745587080716,0.3070464260429144,0.6330768078885972
1761140376259447800,4.24844775390625,1.4606009598612784,0.2507975923374295,0.7299520318191498
1761140376269507800,4.2585078125,1.3937521139472722,0.21544074001312255,0.7003305813416838
1761140376279566800,4.26856689453125,1.1944248888671398,0.07930851451456546,0.6084836339019238
1761140376289627000,4.278626953125,0.9384434641510248,-0.02827244702130556,0.5226998589586467
1761140376299686000,4.288685791015625,0.6555944907754659,-0.13294073598086834,0.5256495025444775
1761140376309745700,4.29874560546875,0.3318962051391601,-0.22976883283406493,0.5403871260143817
1761140376319805000,4.308804931640625,0.062001405882835384,-0.24785890853703021,0.5344312132846564
1761140376329865000,4.318864990234375,-0.16116788255572317,-0.2613464588806033,0.523661032141
1761140376339924000,4.328924072265625,-0.4108902468770742,-0.2749427302956581,0.529445314630866
1761140376349984000,4.33898388671875,-0.5910737955480814,-0.28455986894667146,0.553140370734036
1761140376360042800,4.349042724609375,-0.6546493188798427,-0.278217806443572,0.5269128004785627
1761140376370102000,4.35910205078125,-0.6357867974996566,-0.26103958488851786,0.5394532792303711
1761140376380161800,4.369161865234375,-0.6893804405212401,-0.18684008395075796,0.5653230490241199
1761140376390220800,4.379220703125,-0.8667658829063176,-0.010671908400952815,0.664508303462714
1761140376400280800,4.38928076171875,-1.052101992034912,0.19970804109126328,0.6655461951430887
1761140376410339800,4.39933984375,-1.1436591627478598,0.2649886147752404,0.5984060381323099
1761140376420399900,4.40939990234375,-1.1911632567226886,0.32122049734592434,0.6326926308766007
1761140376430459000,4.419458984375,-1.1380009908556938,0.3686015494629741,0.6357888433262705
1761140376440519000,4.429518798828125,-1.0116787962317466,0.47053456823974843,0.48474531829133627
1761140376450578000,4.439577880859375,-0.9100999977201223,0.4664209954410791,0.42033831257149573
1761140376460637700,4.4496376953125,-0.8355237724244594,0.3821092658117413,0.3865092543363571
1761140376470697000,4.459697021484375,-0.6924281376540661,0.2963490909397602,0.2983789893321693
1761140376480755700,4.469755615234375,-0.5288678070038557,0.19325199681967495,0.14040442292504013
1761140376490816000,4.47981591796875,-0.4316004419505596,0.147462305547297,0.03513871606159955
1761140376500875000,4.489875,-0.48357262125015255,0.16053455308824777,-0.02024637695401907
1761140376510934800,4.499934814453125,-0.6374468396663665,0.19792700289338827,-0.07322236300129444
1761140376520994000,4.509994140625,-0.9206979641020298,0.24522972907721996,-0.10503281142301857
1761140376531053800,4.5200537109375,-1.137275014668703,0.311036372461915,-0.17599384189620612
1761140376541112800,4.53011279296875,-1.256792205452919,0.3820905611112714,-0.2917021053841337
1761140376551172900,4.5401728515625,-1.2560896101415158,0.4677475678697228,-0.345847719732672
1761140376561232000,4.55023193359375,-1.117427573904395,0.5225079165831208,-0.33199477014280854
1761140376571291000,4.560290771484375,-0.8413485330551862,0.5547253018379211,-0.2907476907361299
1761140376581351000,4.570350830078125,-0.4616162255078554,0.5977519581377506,-0.2919535959271714
1761140376591410000,4.580409912109375,-0.1296218206912279,0.5726359293207526,-0.27236765564326193
1761140376601470000,4.590469970703125,0.21029519381821155,0.48808133084625005,-0.25720778817329554
1761140376611529000,4.600529052734375,0.515731846576929,0.33187691591680046,-0.2249052819183096
1761140376621589000,4.610589111328125,0.7041121457070112,0.13032704635113476,-0.11051843975987284
1761140376631647700,4.620647705078125,0.8790642234653234,0.024495266570150852,-0.11127755103148519
1761140376641707800,4.630707763671875,1.0930430742323398,-0.03918050226569175,-0.07022358304411172
1761140376651766800,4.640766845703125,1.2806430366396904,-0.16500877589285373,0.06458323906958102
1761140376661826800,4.650826904296875,1.4655191270411014,-0.303470028860867,0.13151252980865538
1761140376671886000,4.660885986328125,1.6112369270086289,-0.4114209927529096,0.149488368014805
1761140376681944800,4.67094482421875,1.4682622882694005,-0.5941980650484562,0.11052994753457605
1761140376692004900,4.6810048828125,1.0969354054957627,-0.6453057364732027,0.16182196255028247
1761140376702063900,4.69106396484375,0.6912421427398919,-0.5069964591965079,0.19234554949924348
1761140376712124000,4.7011240234375,0.37559681517779825,-0.4273214494571089,0.2249375767527148
1761140376722183000,4.711182861328125,0.2250853511929512,-0.39117315449416634,0.2529023095317185
1761140376732243000,4.721242919921875,0.20559680686891077,-0.3766495391011238,0.29633064196761694
1761140376742302000,4.731302001953125,0.3327887700647115,-0.3195174928203225,0.317580679538846
1761140376752361700,4.74136181640625,0.5647130273669958,-0.20699410644620655,0.3784501222496852
1761140376762421200,4.751421142578125,0.7673872247874737,-0.13921850107610226,0.4530723786441609
1761140376772481300,4.761481201171875,0.8420563890635967,-0.033434359829127784,0.5654593522222713
1761140376782540300,4.771540283203125,0.8215268112540245,0.058659694239497184,0.6338096522077917
1761140376792599300,4.781599365234375,0.6480716940551996,0.10806056174635886,0.7143444205816835
1761140376802659300,4.791659423828125,0.39969197651445865,0.1501607508510351,0.6399154217369855
1761140376812718300,4.80171826171875,0.07023615026473999,0.16956570854485034,0.48720644770786165
1761140376822778000,4.811778076171875,-0.22891864574551582,0.25101737256795165,0.36855570102725177
1761140376832837400,4.82183740234375,-0.46763037123084067,0.3125359633699059,0.2896096996821463
1761140376842897400,4.8318974609375,-0.6024246261239051,0.33476679213941096,0.26474106975495815
1761140376852956400,4.841956298828125,-0.7854775927513837,0.32507658825218677,0.2253602956768125
1761140376863016400,4.852016357421875,-0.8916215072214603,0.2083466900989413,0.11732121510989964
1761140376873075200,4.8620751953125,-0.9173767107248306,0.14244067799299953,0.04377250623106956
1761140376883135200,4.87213525390625,-0.8372633095681666,0.10497194808125496,-0.12622110886964946
1761140376893194200,4.8821943359375,-0.7849070993870496,-0.029044600437581537,-0.19659520630035549
1761140376903253200,4.892253173828125,-0.7778449059158563,-0.16755758359283207,-0.26997034871056674
1761140376913313300,4.902313232421875,-0.7372095286667346,-0.23184008615016935,-0.5215790747677908
1761140376923372300,4.912372314453125,-0.6166010355144739,-0.31636721209585666,-0.6677246351607143
1761140376933432300,4.922432373046875,-0.48145606748759745,-0.45435149520188567,-0.8513758599422871
1761140376943491300,4.9324912109375,-0.4105336885243654,-0.6325900472849607,-0.9274518222764134
1761140376953551400,4.94255126953125,-0.38510873988866806,-0.7013327441215514,-1.0476266001865266
1761140376963610400,4.9526103515625,-0.42377194028198717,-0.7420327110394835,-1.12434202946797
1761140376973670100,4.962670166015625,-0.45313890454173084,-0.7327493343874811,-1.047858216985315
1761140376983729400,4.9727294921875,-0.283801744055748,-0.6210331727430224,-0.8720390010036527
1761140376993788200,4.9827880859375,0.013948445853590964,-0.5422483898416162,-0.6216799462139606
1761140377003848200,4.99284814453125,0.34012276621460913,-0.4853150810033083,-0.3633695305610075
1761140377013907200,5.0029072265625,0.6180857211142778,-0.43632893177717924,-0.20503853366533292
1761140377023967200,5.01296728515625,0.8212468252688646,-0.3783335466653108,-0.14197059452952815
1761140377034026500,5.023026611328125,0.9079238227248191,-0.341766149507463,-0.08017806389071047
1761140377044086300,5.033086181640625,0.8819844948261976,-0.2544450089290738,-0.06552165243085474
1761140377054145300,5.043145263671875,0.81996847589612,-0.151820793017745,-0.18166454447638242
1761140377064205300,5.053205322265625,0.6973691011875868,-0.09064736239165067,-0.2663125933879986
1761140377074264300,5.063264404296875,0.5602268218636512,0.011297639083862304,-0.3612920666998252
1761140377084323300,5.0733232421875,0.5281102666348219,0.2173205624103546,-0.4462597394872457
1761140377094383400,5.08338330078125,0.4198088818699121,0.39972441747933624,-0.4399452225781977
1761140377104442400,5.0934423828125,0.1740589283108711,0.4513868001773953,-0.43403844621982424
1761140377114502100,5.103502197265625,-0.007840192106366157,0.643192105320096,-0.4186686988588422
1761140377124561400,5.1135615234375,-0.18024375442564486,0.7857815441340208,-0.4621055068621412
1761140377134621400,5.123621337890625,-0.2855599858999252,0.8142582815557717,-0.46307763982992617
1761140377144680200,5.13368017578125,-0.2495329792290926,0.868100638641417,-0.40138431351557374
1761140377154740200,5.143740234375,-0.11239712964594363,0.8631450620606541,-0.2805536289799958
1761140377164799200,5.15379931640625,-0.019193945291638374,0.8269017822906375,-0.16980992909688503
1761140377174859300,5.163859375,0.01777764875292778,0.8734162807062268,-0.1677514987297356
1761140377184918500,5.17391845703125,0.04155483018159866,0.7630901121154428,-0.1798578238479793
1761140377194977300,5.183977294921875,0.2415110008150339,0.6558864594593644,-0.31607816602140665
1761140377205037300,5.194037353515625,0.3299111688017845,0.5074366041794419,-0.3321699075140059
1761140377215096300,5.204096435546875,0.3300701587557792,0.33836627793610097,-0.5014373272320255
1761140377225156400,5.21415625,0.2944885577648878,0.16210194853544235,-0.6806231335699557
1761140377235215000,5.224215087890625,0.14701836117208003,0.10174509498924017,-0.7814883769847453
1761140377245275100,5.234275146484375,0.07874795802235603,0.07841068889200686,-0.8704008053425699
1761140377255334400,5.24433447265625,-0.019152444237470624,-0.08357581657022237,-0.8898672109000384
1761140377265394200,5.254394287109375,-0.11106734234690666,-0.12171353178471327,-0.853311065788567
1761140377275453400,5.264453369140625,-0.1328688397884369,-0.0947413537070155,-0.7968824916020035
1761140377285512200,5.27451220703125,-0.12932897522449494,-0.10271394002139568,-0.6135270348966121
1761140377295572200,5.284572265625,-0.12298399011194705,-0.14395809681862592,-0.47719888496715573
1761140377305631500,5.294631591796875,-0.024779051947593687,-0.16122282761335371,-0.4322149205870926
1761140377315691300,5.304691162109375,0.10082827240526676,-0.1605348453491926,-0.40993605142477896
1761140377325750300,5.314750244140625,0.20614859553277493,-0.2351011337727308,-0.3621162790969014
1761140377335810300,5.324810302734375,0.2613046655654907,-0.288400762283802,-0.33686855019163336
1761140377345869300,5.334869384765625,0.2714332608699798,-0.31871699009239673,-0.3899521613318473
1761140377355929300,5.344929443359375,0.26934944033324715,-0.3519263089939952,-0.43200175276044755
1761140377365988400,5.35498828125,0.23315642944574355,-0.3550421029269695,-0.41245819031354036
1761140377376047400,5.36504736328125,0.17872458203434943,-0.31846827602833505,-0.37553094686735417
1761140377386107100,5.375107177734375,0.14685177243351935,-0.23730010512173175,-0.3214933594705537
1761140377396166400,5.38516650390625,0.16682020922899246,-0.14581804547160862,-0.26891174303572624
1761140377406226400,5.395226318359375,0.15247662657797337,-0.09945230787694453,-0.21423684411607682
1761140377416285200,5.40528515625,0.1090957500129938,-0.0808230107307434,-0.17793372391760348
1761140377426345500,5.415345458984375,0.12548399023413656,-0.012565467062592506,-0.1282403762701899
1761140377436404200,5.425404296875,0.07595511243343353,0.018320669588446616,-0.08091901845112442
1761140377446464300,5.43546435546875,0.03528934004604816,-0.0006359598159790038,-0.060880439028888934
1761140377456523300,5.445523193359375,0.04617664476335048,0.008579612296819687,-0.05565510559603572
1761140377466583300,5.455583251953125,0.13443711201846598,-0.041379181353747845,0.0725923580020666
1761140377476642300,5.465642333984375,0.2885533224970102,-0.10588058735877275,0.2512650637187063
1761140377486701300,5.475701416015625,0.44862931816279883,-0.27536358605623246,0.37064584170691667
1761140377496761300,5.48576123046875,0.5689607479393481,-0.49760786860436196,0.24544724428541956
1761140377506820000,5.495820068359375,0.8104448607474565,-0.7206357027456164,-0.0034657764144241806
1761140377516880400,5.50588037109375,0.9548737899482249,-0.8429910395652055,-0.0785134916793555
1761140377526939400,5.515939453125,0.9207669376850127,-0.8380883622154593,-0.3810973122902214
1761140377536999200,5.525999267578125,0.9933037661075591,-0.773999920925498,-0.7770151770934463
1761140377547058400,5.536058349609375,1.1115133814245461,-0.6464508148550987,-1.0259279055323451
1761140377557118500,5.546118408203125,1.1500807202279566,-0.5912377539381385,-1.1771904070802033
1761140377567177200,5.55617724609375,0.9885340674877167,-0.5308998973533511,-1.129583218057081
1761140377577236500,5.566236572265625,0.5963321544677018,-0.4254714376762509,-1.010342213865742
1761140377587296300,5.576296142578125,-0.19464169761240482,-0.32437720781117674,-0.8972548369333148
1761140377597355300,5.586355224609375,-1.1379834551990031,-0.08563917884081601,-0.7504445655539631
1761140377607415300,5.596415283203125,-1.7170505866110324,0.18197861539423466,-0.6625158144712447
1761140377617474300,5.606474365234375,-1.8869687618553637,0.2612777775585651,-0.4720227609708905
1761140377627534300,5.616534423828125,-1.840457186049223,0.2363911735832691,-0.18712828977499157
1761140377637593300,5.62659326171875,-1.6082272237986326,0.26994273005127906,0.007508695129677653
1761140377647653400,5.6366533203125,-1.4474544780403376,0.26426789928525685,0.05609320475235581
1761140377657712000,5.646712158203125,-1.2638070526510476,0.3831479612097144,-0.10010467083845287
1761140377667771400,5.656771484375,-0.8960264641821384,0.5778238533526658,-0.16405742998477071
1761140377677831400,5.66683154296875,-0.5560825616657734,0.5598448368087411,0.06240373960603028
1761140377687890200,5.67689013671875,-0.3133773826301098,0.43976796631515025,0.15424469569642096
1761140377697950500,5.686950439453125,-0.05508826549351215,0.31739334027320143,0.11115896615311503
1761140377708009200,5.69700927734375,0.1271124682188034,0.244110661919415,0.02306881396360695
1761140377718069200,5.7070693359375,0.17594751853644847,0.1955138042718172,0.044699740611203014
1761140377728128300,5.717128173828125,0.11067395911514759,0.22454759105443953,0.08958210778031497
1761140377738188300,5.727188232421875,0.019997662889957427,0.5092068287223577,0.1527684491313994
1761140377748247300,5.737247314453125,0.035628947263956066,0.7305652683466672,0.22731902852915226
1761140377758306800,5.747306884765625,0.023916297638416288,0.7140563243553042,0.34171964348461475
1761140377768366600,5.75736669921875,-0.14421324062347413,0.5610349233761429,0.3470428843339905
1761140377778425600,5.767425537109375,-0.28407179316878317,0.542731497183442,0.2561141477176919
1761140377788486000,5.77748583984375,-0.2844131539523601,0.6789765354067087,0.21887133551631122
1761140377798544600,5.787544677734375,-0.19562018725574015,0.6647647624418139,0.17644403334911912
1761140377808604700,5.797604736328125,-0.1945855835109949,0.5552335436210036,0.2563857677333057
1761140377818663700,5.80766357421875,-0.3382213165074587,0.43789282009303565,0.3240689455796033
1761140377828723700,5.8177236328125,-0.44828971094489095,0.3782151809826493,0.2489098423620686
1761140377838782700,5.82778271484375,-0.44059915644228453,0.33592063834965225,0.1713618347140029
1761140377848841700,5.837841796875,-0.3145154467493296,0.2406704583376646,0.2575613143187016
1761140377858901800,5.84790185546875,-0.19069851294457912,0.12836860575973988,0.34070809182189404
1761140377868960500,5.85796044921875,-0.1452548586308956,0.0812152249187231,0.34561624906435606
1761140377879020800,5.868020751953125,-0.16986089209914207,0.043644788198173044,0.3020806933943182
1761140377889079600,5.87807958984375,-0.16969664144814015,0.022744038988649844,0.26291929768789557
1761140377899139600,5.8881396484375,0.028900515791773794,-0.01927694739997387,0.08730404331311584
1761140377909198800,5.89819873046875,0.210191733443737,-0.13494535380154848,0.09262136587835848
1761140377919258600,5.908258544921875,0.3282072874933481,-0.2125476489201188,0.0546646332539618
1761140377929317600,5.918317626953125,0.4792687865763902,-0.3204693867176771,0.04755209783501923
1761140377939376600,5.928376708984375,0.5547925218552351,-0.3950444429695606,0.02143792482614517
1761140377949436700,5.938436767578125,0.49667058775424955,-0.4039402816087007,0.053511298500373956
1761140377959495700,5.94849560546875,0.3346908042937517,-0.31518852370530365,0.16988149649575351
1761140377969555700,5.9585556640625,0.16823066054880617,-0.20066051951050756,0.1985416276603937
1761140377979614700,5.96861474609375,0.05478665219843387,-0.14618454069644213,0.21862996450848876
1761140377989674500,5.978674560546875,-0.07333002462685108,-0.17111586059629916,0.28353965905345974
1761140377999733800,5.988733642578125,-0.15735270818173885,-0.18342618385404347,0.2953164599563926
1761140378009793800,5.998793701171875,-0.14175415703356264,-0.13035305757522583,0.28493279391229154
1761140378019852500,6.0088525390625,-0.050853404402732845,-0.08415157063156366,0.2650431945066899
1761140378029911800,6.018911865234375,0.06875088014304638,-0.15770809749066828,0.20989961862936615
1761140378039971600,6.0289716796875,0.17392156566679476,-0.26378596098721024,0.12074739016629754
1761140378050030600,6.039030517578125,0.19374504103362558,-0.29360856005996466,0.035061084248125554
1761140378060091000,6.0490908203125,0.14708441214561463,-0.2707584303483367,0.009690715343877672
1761140378070149600,6.059149658203125,0.09295067089796066,-0.20302374151051042,0.018301818757504223
1761140378080209700,6.069209716796875,0.015589198797941206,-0.13348024968504904,0.04084514754228294
1761140378090268700,6.0792685546875,-0.04530629166960716,-0.040168344259262086,0.025841639677807688
1761140378100328700,6.08932861328125,-0.059091071394085884,0.021646014618873596,-0.0023939824644476173
1761140378110387500,6.099387451171875,-0.07467851662635802,0.04019873939752579,-0.06144347973912954
1761140378120446700,6.10944677734375,-0.11371756459474563,0.020324118365347383,-0.1059187274120748
1761140378130506800,6.1195068359375,-0.12735855193436146,-0.0013084522500634193,-0.10613032433614134
1761140378140565800,6.129565673828125,-0.08427636605501175,-0.01750964546650648,-0.07188399053700267
1761140378150625800,6.139625732421875,-0.008069324687123298,-0.06904547917544841,-0.055961322000995274
1761140378160684500,6.1496845703125,0.1161328090429306,-0.11686170783936976,-0.05828282375112175
1761140378170744600,6.15974462890625,0.237336930000782,-0.14831220037490128,-0.06390738563463091
1761140378180803800,6.169803955078125,0.31575755576491354,-0.1376683490246534,-0.0177636202275753
1761140378190863600,6.179863525390625,0.24574644642770288,-0.10333733261674642,0.07461684956699609
1761140378200922600,6.189922607421875,0.047644963750243186,0.0007826748102903366,0.0750685388572514
1761140378210981600,6.199981689453125,-0.004504910203814506,0.18500906913131474,0.06908624957725405
1761140378221041700,6.210041748046875,0.06162380474209785,0.2773442384794354,0.07155928862728178
1761140378231100700,6.2201005859375,0.08231471059322357,0.17181524103730916,0.06293766381964087
1761140378241160700,6.23016064453125,0.20456395668983457,0.1375134507238865,-0.002404065467044711
1761140378251219700,6.2402197265625,0.27832945012450216,0.11616349644213914,-0.02958813272975385
1761140378261279500,6.250279541015625,0.3802823426455259,0.12980156117230654,-0.03667538757696748
1761140378271338800,6.2603388671875,0.43748833094537254,0.09161416159719228,0.014218421901389956
1761140378281398800,6.270398681640625,0.41121465652585026,0.04015168538540601,0.04218706367053091
1761140378291457500,6.28045751953125,0.2894295208096504,0.06667261256426572,0.015344941713288426
1761140378301516800,6.290516845703125,0.11245733540058135,0.07160247018188237,0.013418211434409022
1761140378311576600,6.30057666015625,-0.07945230689942837,0.08634615806639194,0.012061828389391302
1761140378321635800,6.3106357421875,-0.25514672745764255,0.08270283312797545,0.0176204854298383
1761140378331695600,6.320695556640625,-0.33336803125739095,0.08618716811239718,0.013372034205123782
1761140378341754600,6.330754638671875,-0.3254354846924543,0.08119242856502533,0.032991073041036725
1761140378351814700,6.340814697265625,-0.26952830403149125,0.0025578677892684936,0.03263283418789506
1761140378361873700,6.350873779296875,-0.1474894858151674,-0.056658583550155156,0.002369505610316992
1761140378371933700,6.36093359375,-0.049773792472481725,-0.15680471891015768,-0.0331502091255039
1761140378381992700,6.37099267578125,0.17037936301529408,-0.17860884670019148,-0.07519632995538413
1761140378392051700,6.3810517578125,0.35767245143055915,-0.25313772572278975,-0.035834333642944693
1761140378402111700,6.39111181640625,0.5126987624913454,-0.30684096659868954,-0.005232713021710514
1761140378412170800,6.401170654296875,0.643229514721036,-0.31447569926083085,-0.0029960400108247996
1761140378422230800,6.411230712890625,0.6573726063638925,-0.3091048198774457,-0.0056529111951589585
1761140378432289500,6.42128955078125,0.5048211609840393,-0.2595163208439946,0.017132117391005158
1761140378442349600,6.431349609375,0.24085049107968806,-0.1713181051701307,0.08925437366329134
1761140378452408800,6.441408935546875,-0.07431202140152454,-0.08790946186035871,0.046135216774418945
1761140378462467600,6.451467529296875,-0.23445815969407557,-0.06299713892191648,-0.026749402172490954
1761140378472527600,6.461527587890625,-0.193257549777627,-0.10691694466918707,-0.05075447407290339
1761140378482586600,6.471586669921875,-0.03567453997135162,-0.16781477322429417,-0.0942160146586597
1761140378492646700,6.481646728515625,0.16533961528241634,-0.20681495048701762,-0.11857114210575818
1761140378502705700,6.49170556640625,0.39305473045706746,-0.17695961818844078,-0.10999927472397684
1761140378512765700,6.501765625,0.530678071296215,-0.1788189823195338,-0.08956913870088755
1761140378522824700,6.51182470703125,0.4912643447965383,-0.16908055537641048,0.024244360549002884
1761140378532884500,6.521884521484375,0.2982195609867573,-0.0923144188210368,0.1132386950366199
1761140378542943700,6.53194384765625,0.093968323507905,0.0018868366599082945,0.17055420812554656
1761140378553002500,6.54200244140625,-0.030168343770503998,0.010813654959201812,0.1624068497661501
1761140378563062800,6.552062744140625,-0.023957798692584038,-0.041056233009696005,0.16380780260525643
1761140378573121800,6.562121826171875,0.0701572398096323,-0.06952274129837752,0.10942688166350126
1761140378583181600,6.572181640625,0.19518062679469583,-0.0746709178417921,0.09989866340495646
1761140378593240800,6.58224072265625,0.2421212416678667,-0.08907850563973188,0.1080168687351048
1761140378603300600,6.592300537109375,0.200741768053174,-0.059925768652558324,0.11871654192581772
1761140378613359600,6.602359619140625,0.14590601601600647,-0.018464461973309514,0.11354513063728809
1761140378623419600,6.612419677734375,0.06466682569980621,0.020217150859534738,0.11672076499871908
1761140378633478700,6.622478759765625,-0.020582184779644012,0.02687690100967884,0.11600472568385302
1761140378643537700,6.63253759765625,-0.07900339408814906,0.050367958973348136,0.1658504874140024
1761140378653597700,6.64259765625,-0.029140754288434982,0.08362550093084574,0.17855507068634033
1761140378663656700,6.65265673828125,0.02886076830327511,0.10736118130534887,0.15394684526100755
1761140378673716700,6.662716796875,0.04060673567652702,0.10095219104588031,0.16175905338190494
1761140378683775700,6.672775634765625,0.009565700724720955,0.1362862470164895,0.15906594184041023
1761140378693835800,6.682835693359375,-0.04010112424194812,0.16671704111546276,0.11270999498739838
1761140378703894500,6.69289453125,-0.07820844431817531,0.16581307801306247,0.052040203034505246
1761140378713954600,6.70295458984375,-0.12138123109042644,0.07730535799860953,-0.0060165568757802245
1761140378724013600,6.713013671875,-0.04369359577596187,0.05062427182197571,-0.020218539099022746
1761140378734072600,6.723072509765625,0.0668546911329031,0.014974866291880606,0.02398804770037532
1761140378744132900,6.7331328125,0.16635259171724318,-0.00755377638041973,0.0823256703786552
1761140378754191600,6.743191650390625,0.26541560801565645,-0.04015051634162664,0.05078465001545846
1761140378764251000,6.7532509765625,0.2254208667576313,-0.1028220765709877,0.059553135947883126
1761140378774310100,6.76331005859375,0.1608177539438009,-0.1369526019707322,0.07915938836745917
1761140378784370000,6.773369873046875,0.09118190765976905,-0.12655717242360115,0.00624693156555295
1761140378794429200,6.78342919921875,0.0197200149923563,-0.14106617476940153,-0.04671060550957918
1761140378804488000,6.793488037109375,0.04193009323477745,-0.18814181419908999,-0.055311260594427585
1761140378814548000,6.8035478515625,0.09872808525562286,-0.22024141829311847,-0.07518756212703884
1761140378824607200,6.813607177734375,0.21864333544671535,-0.2240694521486759,-0.11641418326757848
1761140378834667000,6.8236669921875,0.32052433177530765,-0.19316490305811165,-0.11605126823931931
1761140378844726000,6.83372607421875,0.334319048371911,-0.1802095598950982,-0.11237338344417512
1761140378854786000,6.8437861328125,0.28370763603150845,-0.16784019992649554,-0.12983875137753784
1761140378864845000,6.853844970703125,0.1502741480976343,-0.1337006144374609,-0.11089505451992153
1761140378874905000,6.863905029296875,0.0028501287341117856,-0.11847703408151865,-0.11158099095746875
1761140378884964000,6.873964111328125,-0.08813128791749476,-0.13760229805111884,-0.11402684973962604
1761140378895023000,6.884023193359375,-0.08942775746881962,-0.14537673144489527,-0.13534838164448737
1761140378905083000,6.894082763671875,-0.10691256075501442,-0.17927023321837185,-0.15595738136582077
1761140378915142100,6.90414208984375,-0.08918225827515125,-0.23669307913929222,-0.13432291105426847
1761140378925202200,6.9142021484375,-0.052801615861058235,-0.22875848674774169,-0.08682626973353326
1761140378935261000,6.924260986328125,-0.036380057892203325,-0.22724340600967405,-0.057437751229107374
1761140378945321000,6.934321044921875,0.0372656085550785,-0.18874357948452233,-0.06591594897806644
1761140378955380000,6.9443798828125,0.1408674373269081,-0.14379209260195494,-0.1297062841042876
1761140378965440000,6.95443994140625,0.17053016966283321,-0.12475918309092521,-0.12178688928186893
1761140378975499300,6.964499267578125,0.18673311644494534,-0.1140299915447831,-0.10855082948133349
1761140378985558000,6.97455810546875,0.2006757170796394,-0.06629501142352819,-0.09848324364908038
1761140378995618000,6.9846181640625,0.1744774459838867,-0.00962298386991024,-0.06996266708560288
1761140379005677000,6.994677001953125,0.12906769393980502,-0.006108253747224807,-0.042065556182712315
1761140379015737000,7.004737060546875,0.05152852718532085,-0.002890753005445003,0.0018559300649911164
1761140379025795800,7.0147958984375,-0.03133680302798748,-0.01228635786026716,0.010414499573782085
1761140379035856100,7.024856201171875,-0.09296060777008533,-0.017260346880555152,0.014576953015476464
1761140379045915100,7.0349150390625,-0.13619769195020198,-0.028869828392565248,0.04245448243506252
1761140379055974000,7.044973876953125,-0.11693243498802185,-0.029838965685665606,0.01458535551764071
1761140379066034200,7.0550341796875,-0.07538461906909942,-0.06185615219324827,0.046102118222415445
1761140379076093000,7.065093017578125,-0.024459902995824814,-0.029944471886754035,0.005639101865515112
1761140379086153000,7.075153076171875,0.05555705204904079,-0.0019259996265172958,-0.07758117926530539
1761140379096212200,7.085212158203125,0.07455693607330321,-0.026816402994096277,-0.08135039560571312
1761140379106272000,7.09527197265625,0.06559621550440788,-0.01606266152858734,-0.0639363925334066
1761140379116331000,7.1053310546875,0.05546235950291156,0.019910569128394125,-0.04421228588782251
1761140379126391000,7.11539111328125,0.025732407149672506,0.04329027567207813,0.0162622026886791
1761140379136450000,7.125449951171875,0.015957447588443755,0.03187485542744398,0.08012289963737129
1761140379146509000,7.135509033203125,-0.008470891225337982,0.038978842213749886,0.08707067294865846
1761140379156569000,7.145569091796875,-0.03545183713138103,0.01851210050731897,0.058317602803558105
1761140379166628000,7.155628173828125,-0.022511691537499427,0.003793547064065933,0.003276172126457095
1761140379176687900,7.16568798828125,0.017017185774445533,-0.0060769818261265755,-0.07401420749872922
1761140379186747100,7.1757470703125,0.05033201087713241,-0.06180734461545944,-0.14065868994705377
1761140379196807200,7.18580712890625,0.07165244680345058,-0.0476835421949625,-0.15023396221771834
1761140379206866000,7.195865966796875,0.1043599536627531,-0.015145838944613932,-0.07950484080426394
1761140379216925200,7.20592529296875,0.10829086337089538,0.0070858666077256195,-0.028849589322134852
1761140379226985000,7.21598486328125,0.14645137493908406,0.01270078388005495,-0.016975611655041575
1761140379237044000,7.2260439453125,0.18782208072543144,0.018825404240190982,-0.013531974007189272
1761140379247104000,7.23610400390625,0.18885668447017667,-0.03540361407548189,0.021579598319157955
1761140379257163000,7.2461630859375,0.15530337443649767,-0.07504471959024667,0.023741306397691366
1761140379267223000,7.25622314453125,0.12392097870111465,-0.06660130089372396,0.02097169555388391
1761140379277282000,7.266281982421875,0.11774141328334807,-0.07232873862981797,0.047003304845839734
1761140379287342000,7.276342041015625,0.10950491533577442,-0.0718672585979104,0.02008161484636366
1761140379297400800,7.28640087890625,0.12327215940356254,-0.08898936605155468,0.0023256664685904977
1761140379307460000,7.296460205078125,0.13094693181514738,-0.11317279019355773,-0.012270868030190467
1761140379317520100,7.30652001953125,0.17292554036676883,-0.08997750030606985,-0.05451733373776078
1761140379327579100,7.3165791015625,0.20560791278481483,-0.07639584193825721,-0.012413564436510205
1761140379337639200,7.32663916015625,0.1917752022653818,-0.09446604389697313,0.03958820628374815
1761140379347698000,7.336697998046875,0.2235118182659149,-0.08079583046287298,0.06959032664187252
1761140379357758000,7.346758056640625,0.28748890813589095,-0.046132221099734305,0.11697298619411885
1761140379367817200,7.356817138671875,0.353129547303915,-0.07135141803026199,0.16188742900192737
1761140379377876000,7.3668759765625,0.40340427503585813,-0.021947043392062184,0.14525770817510783
1761140379387936000,7.37693603515625,0.3207920428007841,-0.026823417256772515,0.10829057110995054
1761140379397995000,7.3869951171875,0.159803023943305,-0.062010173711180686,0.10589954778756945
1761140379408055000,7.397054931640625,0.010326748225092887,-0.11115823550075292,0.0031493308763951063
1761140379418114000,7.407114013671875,-0.20985621787905692,0.031178689856827257,0.02007408912703395
1761140379428174000,7.417174072265625,-0.34021804328262806,0.15911767202764748,-0.0013490034561604261
1761140379438233000,7.427233154296875,-0.3444476436764002,0.16832096918076275,0.033196934344060715
1761140379448292900,7.43729296875,-0.3042266924470663,0.10091975008100271,0.026899624298140405
1761140379458352000,7.44735205078125,-0.1877273881793022,0.04676934995949268,-0.0596710997717455
1761140379468411000,7.457410888671875,-0.11715046165287495,0.04068447708785534,-0.11099091610983014
1761140379478471200,7.46747119140625,-0.09963584775030612,0.00032119477838277817,-0.13587945631388573
1761140379488530200,7.4775302734375,-0.12599369332194327,-0.049695466539263725,-0.12804306359980255
1761140379498590000,7.48758984375,-0.18747662828862666,-0.03429477605074644,-0.14135923943184314
1761140379508649200,7.497649169921875,-0.274411399897933,0.04727729948163032,-0.14617591899856924
1761140379518709000,7.507708984375,-0.3816115454226732,0.124615975227952,-0.15681538643464446
1761140379528768000,7.51776806640625,-0.4226426439911127,0.1596530940786004,-0.19659009173382072
1761140379538827000,7.527826904296875,-0.3552554534167051,0.20813976934999226,-0.1846407838081941
1761140379548887000,7.537886962890625,-0.23035189341902731,0.22333061648011207,-0.1673963651491329
1761140379558946000,7.547946044921875,-0.1495557706952095,0.22533844917118548,-0.16581015540361405
1761140379569006000,7.558006103515625,-0.048887657287716865,0.1815609745040536,-0.1683974684830755
1761140379579065000,7.568065185546875,0.0702618692278862,0.1314060737594962,-0.18706150814909486
1761140379589125000,7.578125,0.19434476049244404,0.11394903526306152,-0.1685676374182105
1761140379599184100,7.58818408203125,0.2843336589753628,0.10933861885815858,-0.16787139878235757
1761140379609244200,7.598244140625,0.23487609284520147,0.05781564463078975,-0.19222583210971206
1761140379619303000,7.608302978515625,0.1205377660036087,0.009251520209014414,-0.2150739890599623
1761140379629362200,7.618362060546875,0.03974690397679805,-0.012355039182305336,-0.24550266426708547
1761140379639422000,7.628421875,-0.016595745491981506,-0.053284723202884195,-0.22319292504247276
1761140379649481000,7.63848095703125,-0.018740356305241585,-0.08632277719080447,-0.2074223417956382
1761140379659541200,7.648541259765625,-0.025193477967381476,-0.09856266556084156,-0.1745495613720268
1761140379669600000,7.65860009765625,-0.0891319893926382,-0.0834437146231532,-0.1491669175080955
1761140379679660000,7.668659912109375,-0.14014496827125547,-0.061383858506381506,-0.12727394239082931
1761140379689719000,7.678718994140625,-0.12357318817675113,-0.050879123365879055,-0.10144048601947724
1761140379699778000,7.688778076171875,-0.05390928484201431,-0.0698433515548706,-0.13480872180983425
1761140379709838000,7.698838134765625,0.0598047726213932,-0.08964373830705881,-0.18158022719379513
1761140379719897000,7.70889697265625,0.16425006648004054,-0.12899170609414576,-0.21540672814566642
1761140379729957000,7.71895703125,0.25282266842424866,-0.13755582856088877,-0.27284714625589546
1761140379740015900,7.729015869140625,0.3184387576729059,-0.0859752789273858,-0.28983685950152577
1761140379750076200,7.739076171875,0.3335919031411409,-0.07570902871787548,-0.23841617660485206
1761140379760135000,7.749135009765625,0.23104046020507812,-0.04708265369236469,-0.13882073393017053
1761140379770194200,7.759194091796875,0.15371464394032955,-0.027995968167483804,-0.09854041719641536
1761140379780254000,7.76925390625,0.09102116414010525,0.004618599711358547,-0.06117153092995286
1761140379790313000,7.77931298828125,0.04609422717690467,-0.0052174423873424525,-0.053494018572010096
1761140379800373000,7.789373046875,0.0352875864803791,-0.11135931103080511,0.003711787064746022
1761140379810432000,7.799431884765625,0.07128419801294804,-0.21208441532254219,0.01137450371235609
1761140379820492000,7.809491943359375,0.13594634753763674,-0.2668950329184532,-0.05810447150953114
1761140379830550800,7.81955078125,0.2176174995303154,-0.3204246707931161,-0.08853343897759913
1761140379840611000,7.829611083984375,0.3208843972593546,-0.3384349592581391,-0.05673468099366873
1761140379850670000,7.839670166015625,0.4456073399931192,-0.34165801295787096,0.01672149076350033
1761140379860729000,7.84972900390625,0.5417360564053059,-0.39515287178009745,0.1753016583809629
1761140379870789000,7.8597890625,0.48233460388779636,-0.4422261731222272,0.4019420204635709
1761140379880848000,7.869847900390625,0.2557248196065426,-0.41808395777344703,0.49570101206973194
1761140379890908000,7.879907958984375,-0.012616320466995238,-0.3109405108720064,0.419798798867315
1761140379900967200,7.88996728515625,-0.379424264511466,-0.2672182735234499,0.3400035237491131
1761140379911027000,7.90002685546875,-0.680855773282051,-0.28670038810670373,0.2206056850282475
1761140379921086000,7.9100859375,-0.8396832301914692,-0.29104017087668177,0.03128781278710812
1761140379931145000,7.92014501953125,-0.8798387149691581,-0.2909337878927588,-0.09253193402923643
1761140379941205000,7.930205078125,-0.8094716318011284,-0.28657091650813815,-0.13397164993118493
1761140379951264000,7.940263916015625,-0.6146189217865466,-0.29576223096251486,-0.18474051785562187
1761140379961324000,7.950323974609375,-0.3399357192099094,-0.2734910701826215,-0.22332382141314447
1761140379971383000,7.960383056640625,-0.07260404843986033,-0.2400149170383811,-0.2396369871040806
1761140379981442800,7.97044287109375,0.11550853966474532,-0.17482260615974662,-0.07218973201792686
1761140379991502000,7.980502197265625,0.15604221010506153,-0.06814210059493779,0.032452436119690536
1761140380001560800,7.990560791015625,0.09243336902558803,0.06935352221131325,0.0735887486282736
1761140380011621000,8.00062109375,-0.032576573956012725,0.15267711758613586,0.07918762808125465
1761140380021680000,8.01068017578125,-0.1786468406230211,0.18342589159309863,0.08170593104511499
1761140380031740000,8.020739990234375,-0.2812736868828535,0.16685528054237364,0.0009327508054673672
1761140380041799200,8.030799072265625,-0.3548848665386438,0.22839842126369475,-0.07538626303691416
1761140380051859000,8.04085888671875,-0.3704623748987913,0.30521278087496756,-0.09278583572506904
1761140380061918000,8.05091796875,-0.22004560346007346,0.39068361741155383,-0.10818506490886211
1761140380071978000,8.06097802734375,0.025642390778660772,0.44449411805421113,-0.12524897590186446
1761140380082037000,8.071037109375,0.27106325851380825,0.46126638915687795,-0.12607738955002276
1761140380092096000,8.081095947265625,0.4016623998045921,0.46969782515466213,-0.13113525746148078
1761140380102156000,8.091156005859375,0.4322995301306247,0.4708984331160784,-0.11087090645935385
1761140380112215000,8.101215087890624,0.4068091150432825,0.5121566184386611,-0.04518186157234013
1761140380122275000,8.111275146484376,0.4365180246084928,0.562435437823832,0.0385712112609297
1761140380132334000,8.121333984375,0.446422748029232,0.5625894593417644,0.1467670167595148
1761140380142394000,8.13139404296875,0.43788054513335223,0.5200187301158905,0.16390826730504632
1761140380152452900,8.141452880859376,0.46012744825482366,0.5047665081873536,0.13516049438957123
1761140380162512100,8.15151220703125,0.45813189052343367,0.4689309324353933,0.13397066355049608
1761140380172572000,8.161572021484375,0.3692524145871401,0.40689591654390095,0.13247695439402013
1761140380182631000,8.171630859375,0.34363515824973584,0.3696370299905538,0.13842669311128555
1761140380192691200,8.181691162109376,0.4110831391006708,0.3957242419272661,0.14519987704064696
1761140380202750000,8.19175,0.5350917960852384,0.3717027303487062,0.20037293474078177
1761140380212810000,8.20181005859375,0.6926900034606457,0.29018647665679453,0.2596469980189577
1761140380222869000,8.211868896484376,0.8085282134711742,0.2131046982809901,0.24657405635826288
1761140380232928000,8.221927978515625,0.854821762612462,0.15976298419386148,0.19665701949018985
1761140380242988000,8.231988037109375,0.7994307147800922,0.1474292800605297,0.1799760068675503
1761140380253047000,8.242047119140626,0.6466384463816881,0.13250789752155542,0.1246410000713542
1761140380263107000,8.252107177734375,0.398754987925291,0.11349749210327863,0.05402593349162489
1761140380273165800,8.262165771484375,0.14752397260665892,0.07043517996817827,-0.025928623841516674
1761140380283226000,8.27222607421875,-0.06159048699438571,0.05940729773640632,-0.09378306660149247
1761140380293284900,8.282284912109375,-0.17190847227871417,0.07068827794641255,-0.09443035152908415
1761140380303344000,8.29234423828125,-0.22902561325132845,0.08533785780668258,-0.06022427667509764
1761140380313404200,8.302404052734374,-0.24170155495107173,0.03143003426939249,-0.06655136080477386
1761140380323463000,8.312462890625,-0.29713585740327836,-0.08025573223680257,-0.1289629914563149
1761140380333523000,8.32252294921875,-0.34409926863014695,-0.101124332742393,-0.17042798792999236
1761140380343582000,8.33258203125,-0.28855682962834833,-0.1118716444671154,-0.23147092404421418
1761140380353642000,8.34264208984375,-0.18063947574496267,-0.15493892503827808,-0.17635292099956423
1761140380363701000,8.352700927734375,0.01518646321594715,-0.23895897824466228,-0.08708261911477894
1761140380373760000,8.362760009765625,0.029021511822938918,-0.17835457967817783,0.041811435291171074
1761140380383820000,8.372820068359376,0.13213234220743178,-0.11283055262714624,-0.046476431427523494
1761140380393879000,8.382879150390625,0.1631061571419239,-0.1406257375255227,-0.09785502874813973
1761140380403939000,8.39293896484375,0.08193652493059635,-0.20726590912491083,-0.09180727301649749
1761140380413997800,8.402997802734374,-0.07632453026771545,-0.20174188500642776,-0.07119498535953461
1761140380424057900,8.413057861328125,-0.2220394076257944,-0.10463760156035423,-0.06974332524649798
1761140380434117000,8.4231171875,-0.29521921012699603,-0.031019407641887663,-0.08332702944092452
1761140380444176000,8.43317578125,-0.3004670476526022,0.005731821650266647,-0.019303031689301132
1761140380454236000,8.44323583984375,-0.22402385944128037,0.03326397169828415,-0.009593611644953488
1761140380464295000,8.453294921875,-0.1109089369148016,0.06687456487715245,-0.08181216789856553
1761140380474355000,8.46335498046875,0.031135142976045607,0.05884323411285877,-0.1522155644889921
1761140380484414200,8.473414306640626,0.11940671614706516,0.020960370442271233,-0.11047525820527225
1761140380494474000,8.483473876953125,0.16834581136107443,0.0011345569878816605,-0.13176676029805093
1761140380504533000,8.493532958984375,0.12334054846465586,-0.00005874444991350174,-0.13447346197348087
1761140380514592000,8.503592041015626,0.011069675546884535,0.006546060642600059,-0.1072891755150631
1761140380524652000,8.513652099609375,-0.09620704234540461,0.033709961900115014,-0.14054704626612363
1761140380534711000,8.5237109375,-0.08648468975424765,0.030145255155861375,-0.16242551793400198
1761140380544771000,8.53377099609375,-0.01634557012319565,0.00026624972075223923,-0.1507561594609171
1761140380554830000,8.543830078125,0.09116612556874752,-0.016844167295098304,-0.16295447371155022
1761140380564889900,8.553889892578125,0.22176409781575201,0.012550269493460655,-0.2286573644608259
1761140380574949000,8.56394921875,0.3298100465148687,0.06448825426250696,-0.31666802167333663
1761140380585009200,8.574009033203126,0.3997819928854704,0.10436112270653247,-0.33323830393049864
1761140380595068000,8.58406787109375,0.4536082756191492,0.0868009160965681,-0.3367209584144875
1761140380605127200,8.594127197265625,0.4548118061900139,0.06756605427265167,-0.34437808557152744
1761140380615187000,8.60418701171875,0.43827685097455976,0.0034130233138799666,-0.33573121672477574
1761140380625246000,8.614245849609375,0.38565643689930434,-0.08060264597833156,-0.2633899474069476
1761140380635306200,8.62430615234375,0.31713001316189765,-0.11470452980548143,-0.2267339586501941
1761140380645365000,8.634364990234374,0.21244389628469942,-0.14243395599126815,-0.19395123113021254
1761140380655425000,8.644425048828126,0.13851824385225772,-0.12626841861009597,-0.14732790204528717
1761140380665484000,8.654484130859375,0.17970014906823634,-0.1186421615153551,-0.11117233709134161
1761140380675543000,8.66454296875,0.21454057630300521,-0.15310586439222096,-0.03476487778052687
1761140380685602800,8.674602783203126,0.20825521242320535,-0.20748335126787423,0.06983805432524531
1761140380695662000,8.684662109375,0.2268582060843706,-0.18850246420502662,0.08998652386274188
1761140380705722000,8.69472216796875,0.15303484498262404,-0.1382014329880476,0.15151063109003007
1761140380715780900,8.70478076171875,0.041346740388870235,-0.18510434619933366,0.2139330753965303
1761140380725841200,8.714841064453125,-0.09300620047748089,-0.22672814996391533,0.20159063996747134
1761140380735900000,8.72489990234375,-0.2661632115125656,-0.20086159504055975,0.243465349753201
1761140380745959200,8.734959228515624,-0.39858547657728194,-0.18016601301431656,0.275977224442549
1761140380756019200,8.745019287109375,-0.3917243586361408,-0.17445640319585798,0.3331961818218231
1761140380766078200,8.755078125,-0.3095505178183317,-0.18942834687829016,0.30987942097913473
1761140380776138000,8.765137939453124,-0.2422299627393484,-0.2132104967430234,0.21554730566013602
1761140380786197200,8.775197265625,-0.22228841395080087,-0.24548691870868206,0.14354125964604317
1761140380796257300,8.78525732421875,-0.2894154922842979,-0.23995324997901915,0.13706106731388717
1761140380806316000,8.79531591796875,-0.4110112429082393,-0.21657149760872124,0.15575225071515886
1761140380816375300,8.805375244140626,-0.5552987178117037,-0.15424918920844793,0.16827687431070953
1761140380826435000,8.81543505859375,-0.5686918678700924,-0.07530833896249532,0.16912570969238877
1761140380836494000,8.825494140625,-0.46151393417716025,-0.013693009787797927,0.15993088810667394
1761140380846554400,8.835554443359374,-0.26803426608145237,-0.009482406355440617,0.12159206082951277
1761140380856613000,8.845613037109375,-0.08930559239387512,-0.04058510836660862,0.0704091322114691
1761140380866673200,8.855673095703125,0.051642508953809736,-0.07354980485737324,-0.0017747911201789974
1761140380876732200,8.865732177734374,0.15138357064425945,-0.08710369843542576,-0.030698614722304046
1761140380886791200,8.875791259765625,0.21067337948083875,-0.08612345522642136,-0.059942938983067864
1761140380896851000,8.885850830078125,0.21097557729780672,-0.10168021305948495,-0.09260576645042747
1761140380906910200,8.89591015625,0.16911270408034323,-0.12196633750200271,-0.12044285426177084
1761140380916970200,8.90597021484375,0.08338438565135002,-0.13722031299620865,-0.12687906132172794
1761140380927029200,8.916029296875,-0.007405892342329025,-0.09416033894866704,-0.09739515615142881
1761140380937089300,8.92608935546875,-0.13001695748865605,-0.05364683451354503,-0.13706358806453645
1761140380947148000,8.93614794921875,-0.19769056378901004,-0.0008303133442997932,-0.150132986061275
1761140380957207300,8.946207275390625,-0.2387520574957132,0.016385317611694334,-0.15203103823494166
1761140380967267300,8.956267333984375,-0.2133113267689943,0.022846038058400152,-0.19215700465720145
1761140380977326000,8.966326171875,-0.09913198988139629,0.03852233061790466,-0.21844090820979326
1761140380987386000,8.97638623046875,0.07061608949303627,0.03902297361642122,-0.20472696523182093
1761140380997445000,8.986445068359375,0.20922376519441604,-0.0015548282265663146,-0.1498845642581582
1761140381007505200,8.996505126953124,0.33754268659353254,-0.011011223357915878,-0.140557567660138
1761140381017564200,9.006564208984376,0.4226759617388248,-0.018299042278528212,-0.11705167745351791
1761140381027623200,9.016623046875,0.4315297148019075,-0.02423047815412283,-0.1218400077085942
1761140381037683200,9.02668310546875,0.4146124822705984,-0.0029401451051235196,-0.16273841980807482
1761140381047742200,9.0367421875,0.3127268097668886,0.005832067154347896,-0.14039645881429313
1761140381057802200,9.04680224609375,0.16513094096779823,-0.003705576519668102,-0.11958083060495554
1761140381067861000,9.056861083984375,0.04282207363843918,0.03315554288774729,-0.09437463928647338
1761140381077920300,9.066920166015626,-0.026885668838024138,0.09270312587767839,-0.08080759396590292
1761140381087980300,9.076980224609375,-0.050994858700037,0.1076166173711419,-0.058190250096842644
1761140381098039000,9.0870390625,-0.028306641551852224,0.11957798106074333,-0.0839776023041457
1761140381108099300,9.097099365234374,0.004932195705175399,0.14423282210677862,-0.08472283118087798
1761140381118158000,9.107157958984375,0.0380500369310379,0.1714706653833389,-0.11100874402746558
1761140381128218000,9.117218017578125,0.06471124936342239,0.17368629560619592,-0.13290833154860884
1761140381138277000,9.127277099609374,0.06498363656401634,0.15600041678994894,-0.18008439914546906
1761140381148336000,9.137336181640626,0.006108253747224807,0.12596826661974192,-0.18698234196566044
1761140381158396200,9.147396240234375,-0.027185528567433354,0.11609306155443191,-0.18118925511483103
1761140381168455200,9.157455078125,-0.030274726754426953,0.140477853487432,-0.18602109571807085
1761140381178515200,9.16751513671875,0.017005495336651803,0.09744885910004376,-0.18898878641724584
1761140381188574000,9.177573974609375,0.05143441916108131,0.0806906165227294,-0.17385946021601556
1761140381198634200,9.18763427734375,0.09071545919179916,0.05905073938369751,-0.21061028764937073
1761140381208693200,9.197693359375,0.12190554722547531,0.040329087778925896,-0.2136441389199346
1761140381218752300,9.207752197265625,0.11722411141097545,0.00816898566931486,-0.1596840372061357
1761140381228812300,9.217812255859375,0.14271335745453834,-0.03205781077891588,-0.1125825326828286
1761140381238871000,9.22787109375,0.18937398634254932,-0.07245265727043151,-0.04887885292675346
1761140381248931000,9.23793115234375,0.1823819354981184,-0.1054340126350522,0.0029266645690426227
1761140381258990300,9.247990234375,0.2506038233309984,-0.12369038481563328,0.031714221505634486
1761140381269050000,9.258050048828125,0.29833003562390803,-0.12984978422820567,0.05395502367988229
1761140381279109000,9.268109130859376,0.3619172493934631,-0.17142068876177072,0.0931427228713408
1761140381289168100,9.278168212890625,0.4072855003833771,-0.1912088005542755,0.09893197379726916
1761140381299228200,9.288228271484375,0.4866255790799856,-0.18604718000739812,0.017540734724514187
1761140381309287200,9.298287109375,0.49697103200554843,-0.20249737954884767,-0.08940233076661824
1761140381319347200,9.30834716796875,0.40154374186098574,-0.23977818567305803,-0.12694503923002629
1761140381329406200,9.31840625,0.2523597270876169,-0.23382103083431718,-0.10946001674812286
1761140381339466000,9.328466064453124,0.06142214469015598,-0.16136398964971302,-0.0423651967164129
1761140381349525200,9.338525146484375,-0.11104513051509857,-0.0889037335947156,-0.007191482406668365
1761140381359584000,9.348583984375,-0.2161345674961805,-0.08385287994593381,0.03107891927678138
1761140381369644300,9.358644287109374,-0.30606384474635123,-0.10807459027171135,0.05054291368145496
1761140381379703300,9.368703369140626,-0.3214619048863649,-0.10669219600260257,-0.020632417129538953
1761140381389763000,9.37876318359375,-0.2113204452127218,-0.09850304432809352,-0.08439323390033096
1761140381399822300,9.388822265625,-0.1018418333619833,-0.08704173911511898,-0.11652297740429639
1761140381409882000,9.398882080078126,-0.04529986192882061,-0.07233516837060451,-0.1440011322427541
1761140381419941000,9.408941162109375,-0.009445873737335204,-0.08490823421776295,-0.15456910534519702
1761140381430000000,9.419000244140625,-0.005655833804607391,-0.09300590821653604,-0.1268445014650002
1761140381440060200,9.42906005859375,-0.04613514370918274,-0.0569052517876029,-0.11879782700110227
1761140381450119200,9.439119140625,-0.11001228033602237,-0.018107611359655856,-0.07146057749316095
1761140381460179200,9.44917919921875,-0.2139823578983545,0.05348842908143997,-0.0325399682726711
1761140381470238200,9.45923828125,-0.2549608494967222,0.09716858085393905,-0.07612283368315548
1761140381480297200,9.469297119140625,-0.249828747305274,0.09302636648267507,-0.1378842202650383
1761140381490357200,9.479357177734375,-0.19796061290204525,0.049719139675796026,-0.17506394063495098
1761140381500416300,9.489416259765624,-0.12924480407238007,0.03321078020632267,-0.2063118963357061
1761140381510476000,9.49947607421875,-0.01515256094634533,0.039032325966656206,-0.17785123326592148
1761140381520535300,9.509535400390625,0.09207038093209266,0.0327039997279644,-0.08273140163533389
1761140381530595000,9.519594970703125,0.12943243559896944,0.021928630952537057,-0.017239084896817802
1761140381540654000,9.529654052734376,0.15844927124679087,0.03293137874305248,0.011263846412114798
1761140381550713000,9.539713134765625,0.16594050378501415,0.032305940321087835,-0.0409279304549098
1761140381560773000,9.549773193359375,0.15610767655670643,0.020798165617883203,-0.06572860971242189
1761140381570832100,9.55983203125,0.14876374353468416,0.01840980917662382,-0.1254694137195125
1761140381580892200,9.56989208984375,0.18809329888224602,0.029073826532065868,-0.11800331562254578
1761140381590951200,9.579951171875,0.21359014371037482,0.07120616434067488,-0.08215502651948481
1761140381601011200,9.59001123046875,0.23495734138786792,0.12007424014508723,-0.01858998804911971
1761140381611070200,9.6000703125,0.2301215917944908,0.13160334989726544,0.043058878068998455
1761140381621129200,9.610129150390625,0.20626842252016067,0.11503156980276107,0.05875884376503527
1761140381631189000,9.62018896484375,0.1921586486250162,0.11323504177480935,0.02168579863999039
1761140381641248300,9.630248291015626,0.20799276209473608,0.09658405896425247,-0.05306172810196876
1761140381651308000,9.64030810546875,0.23469079940617082,0.03840601076185703,-0.12030333619322627
1761140381661367300,9.6503671875,0.2270277174323797,0.0019222002342343329,-0.13370507141686974
1761140381671427300,9.66042724609375,0.17286007391512392,-0.006946458137035369,-0.12795816179532557
1761140381681486000,9.670486083984375,0.08039923236072063,-0.033653555537760255,-0.13617369002010674
1761140381691545300,9.68054541015625,-0.03496785300672054,-0.08651040871739386,-0.08843706593103706
1761140381701605000,9.690605224609374,-0.16424831291437147,-0.0997153427273035,-0.060729011326842004
1761140381711664000,9.7006640625,-0.2928144870728254,-0.14400485856980086,-0.01868289049696177
1761140381721724200,9.71072412109375,-0.32695407256186004,-0.17166998734772204,-0.0018522402705624698
1761140381731783200,9.720783203125,-0.2594341955184936,-0.1861941872626543,-0.03758950674720108
1761140381741843200,9.73084326171875,-0.13033552191853523,-0.24001579382121563,-0.06461356114260852
1761140381751902200,9.740902099609375,0.006530278551578521,-0.3027604192867875,-0.11554324565194546
1761140381761961200,9.750961181640625,0.09289689488410949,-0.3672773151218891,-0.12542802226319907
1761140381772021000,9.76102099609375,0.11468962449729442,-0.40156010847389695,-0.09636533817965537
1761140381782080300,9.771080322265625,0.0745709645986557,-0.39689503927230835,-0.031002200778760015
1761140381792140300,9.781140380859375,0.02111468422114849,-0.3513528930202126,0.048280083316005765
1761140381802199000,9.791198974609374,-0.019662147325277327,-0.27932109151035545,0.07976283415332436
1761140381812258300,9.80125830078125,-0.059304421883821484,-0.2629156078934669,0.08165347020551562
1761140381822318000,9.811318115234375,-0.10827449675798416,-0.2440709144309163,0.048615562348067756
1761140381832377000,9.821377197265624,-0.1187386076271534,-0.20552929459065197,0.008684899302199482
1761140381842437400,9.831437255859376,-0.10824936231672763,-0.14547814599275588,-0.026786409714631736
1761140381852496100,9.84149609375,-0.045537177816033364,-0.09210515998452902,-0.0009950389193370938
1761140381862556200,9.85155615234375,0.05855038864612579,0.0026712650358676907,0.038907676673680544
1761140381872615200,9.861615234375,0.14584171860814094,0.07794453268498182,0.07603935665078461
1761140381882674200,9.871674072265625,0.23355390433073042,0.12319061859995126,0.0656807885153219
1761140381892734200,9.881734130859375,0.3022404870659113,0.16410364374667405,0.024655754361487925
1761140381902793200,9.891793212890626,0.3542512448102236,0.19776275224238632,-0.03500676024500281
1761140381912853200,9.901853271484375,0.34216099404394623,0.22466157282292842,-0.04711925937570631
1761140381922912000,9.911912109375,0.23426409842669962,0.22829349958449602,-0.042468985884450375
1761140381932972300,9.92197216796875,0.1030915411621332,0.2312684237420559,-0.011617628285847604
1761140381943031000,9.932031005859375,-0.012186112356185913,0.24928017351180315,0.010118475769273936
1761140381953090300,9.94209033203125,-0.06913023484945297,0.2530368956968188,0.05201532432157546
1761140381963150300,9.952150390625,-0.06695990507304668,0.22088293106704948,0.029562669494934378
1761140381973209000,9.962208984375,0.004641688326001167,0.1766930762067437,-0.002559511757083237
1761140381983269000,9.97226904296875,0.11838906353712081,0.1175768703714013,-0.03465728922020644
1761140381993328000,9.982328125,0.30784839007556436,0.07276859135180712,-0.04137629527691752
1761140382003387100,9.99238720703125,0.4013578639000654,0.0037009003445506094,0.02174015917573124
1761140382013447200,10.002447265625,0.5082926364868879,0.08137275356799363,-0.036728177210129796
1761140382023506200,10.012506103515625,0.6282587400823831,0.11190700804144144,-0.08347056609746069
1761140382033566200,10.022566162109374,0.634898324227333,0.03818681505322456,-0.04510189167130738
1761140382043625200,10.032625244140625,0.4763607901751995,-0.06536912875026464,-0.04504884630981833
1761140382053685200,10.042685302734375,0.22956571147739885,-0.10296206956356763,-0.16739114098474384
1761140382063744000,10.052743896484374,0.007466682618856429,-0.13783259967565537,-0.23181414799131453
1761140382073803300,10.06280322265625,-0.10931903737485409,-0.1861003714993596,-0.2411348609790206
1761140382083863300,10.07286328125,-0.17029752995073794,-0.2705699220389128,-0.19037340917605905
1761140382093922000,10.082922119140624,-0.1800502776801586,-0.32639468511343,-0.13825729136113077
1761140382103982300,10.092982421875,-0.1931353847026825,-0.2991735007107258,-0.0899461553197354
1761140382114041000,10.103041015625,-0.22521043887734413,-0.20857026972174644,-0.06796013162415475
1761140382124101000,10.11310107421875,-0.18892331996560097,-0.12346738971471785,-0.0927335940811783
1761140382134160400,10.123160400390624,-0.14886135869026182,-0.22857670044004916,-0.18262447554972022
1761140382144219100,10.13321923828125,-0.14083236601352692,-0.2757692442476749,-0.23956030513867735
1761140382154279200,10.143279052734375,-0.13564999493956564,-0.25049656356424094,-0.22997604584395884
1761140382164338200,10.153338134765624,-0.1311953536182642,-0.2095610343247652,-0.17661621157824992
1761140382174398200,10.163398193359376,-0.12210896084308624,-0.19792495706677435,-0.18629673432167618
1761140382184457000,10.17345703125,-0.18165245217978954,-0.2129074221432209,-0.19592936280276624
1761140382194516200,10.18351611328125,-0.263836814391613,-0.22112024695426225,-0.21334460798408836
1761140382204576300,10.193576171875,-0.34447862333655355,-0.1707183857113123,-0.22205851418506353
1761140382214635000,10.203635009765625,-0.3748965579539537,-0.12541004821509122,-0.1954409216986969
1761140382224695300,10.2136953125,-0.27517478548586366,-0.07804886984229087,-0.13911222769003362
1761140382234754000,10.223754150390626,-0.07970482035577296,-0.0440934087485075,-0.07477956584803759
1761140382244814000,10.23381396484375,0.10393442172706127,-0.04917524205744266,-0.05044840379841625
1761140382254873300,10.243873291015625,0.22703180908560752,-0.07959814511090517,-0.053835671616531904
1761140382264932000,10.25393212890625,0.3204951056808233,-0.11127572440057992,-0.10850162004474549
1761140382274992000,10.2639921875,0.31431437121927736,-0.1460223358720541,-0.16043726672623307
1761140382285051100,10.274051025390625,0.3152361622393131,-0.12041706223338841,-0.1325206474052742
1761140382295111200,10.284111083984374,0.3041647331267595,-0.0891664761841297,-0.0913374635476619
1761140382305170200,10.294170166015626,0.2499678635150194,-0.035983752050995826,-0.010278269440867006
1761140382315229200,10.304229248046875,0.25491467226743697,0.04435293646752834,0.005659340935945511
1761140382325289200,10.314289306640624,0.29366613546609877,0.08623480664640665,-0.05304517882596701
1761140382335348200,10.32434814453125,0.31960955501794813,0.08077800254523754,-0.06712583622448146
1761140382345408300,10.334408203125,0.3693547059178352,0.11386895576417445,-0.14243928975351153
1761140382355467000,10.344467041015625,0.500224480843544,0.14029665170162917,-0.10775456453710794
1761140382365527000,10.354527099609374,0.5833914243519306,0.14899842907339333,-0.028341018745489416
1761140382375586300,10.36458642578125,0.5594499922722578,0.09799772515445947,0.020038944748416544
1761140382385645000,10.37464501953125,0.36859541198313234,0.03544599191248417,0.013223346449434757
1761140382395705300,10.384705322265624,0.15055705669224262,-0.026548399707674978,-0.038642778659798205
1761140382405764000,10.39476416015625,-0.010448913300037383,-0.09461129758656024,-0.06192340874318033
1761140382415824100,10.40482421875,-0.0741436790972948,-0.11092676483243703,-0.04082067068815231
1761140382425883100,10.414883056640624,-0.07026829896867275,-0.11333061110377311,-0.03761182817686349
1761140382435942100,10.424942138671875,-0.07073065578341484,-0.14190379463732242,-0.018218122529424726
1761140382446002200,10.435002197265625,-0.03901332900524139,-0.10776683949679136,-0.015227927737496792
1761140382456061200,10.445061279296874,-0.0015495675295591354,-0.10434621739834546,-0.03627831455077976
1761140382466121200,10.455121337890626,0.03898176482319832,-0.14094400969445706,-0.03161894443761557
1761140382476180000,10.465179931640625,0.06080430505275726,-0.15941051749438045,0.02618716517984867
1761140382486240300,10.475240234375,0.06321604236960411,-0.14466712187081573,0.10422598855216056
1761140382496299300,10.48529931640625,0.05818155533373356,-0.1309478085979819,0.1752038240296766
1761140382506358300,10.495358154296875,-0.007591770303249359,-0.13532880016118287,0.19384546920079737
1761140382516418300,10.505418212890625,-0.08031447668671607,-0.140673668320477,0.1430627919467166
1761140382526477000,10.51547705078125,-0.14154080654382706,-0.12907733855098485,0.009580240706726908
1761140382536537000,10.525537109375,-0.14396072716712952,-0.18189006032794713,-0.17985395139046012
1761140382546596400,10.535596435546875,-0.049174657535552974,-0.253105577018857,-0.3050629240754992
1761140382556655000,10.545655029296874,0.049335401055216783,-0.28199440237283707,-0.3177639636838808
1761140382566715100,10.555715087890626,0.09336042074263096,-0.28041677779257296,-0.20794260281007737
1761140382576774100,10.565774169921875,0.0189531222730875,-0.2191723277568817,-0.008807283572852612
1761140382586834200,10.575834228515625,-0.13208967210948466,-0.12047405311763286,0.17675810426697133
1761140382596893200,10.58589306640625,-0.2585480603337288,0.003630757717788219,0.25436485636495054
1761140382606953200,10.595953125,-0.25040157875716684,0.05102057766318321,0.2834043057033792
1761140382617012200,10.60601220703125,-0.10119301406443118,0.04627864383310079,0.2614380826868117
1761140382627071200,10.6160712890625,0.06651157678365707,0.025189970836043355,0.1676117249328643
1761140382637131300,10.62613134765625,0.21742343826293944,-0.02805032870322466,0.0038191198967397213
1761140382647190000,10.63618994140625,0.21748422853946683,-0.08674772460460663,-0.12274959683418273
1761140382657250000,10.64625,0.13128595451116562,-0.15318535936921834,-0.16256890846006572
1761140382667309300,10.656309326171876,0.007518120545148849,-0.15916531056165695,-0.09496025715470313
1761140382677368000,10.6663681640625,-0.14003683172166348,-0.09170183988064527,-0.009621084173768758
1761140382687428400,10.676428466796875,-0.23791443762779235,0.0008431728258728981,0.11857625667229293
1761140382697487000,10.686487060546876,-0.3506628649294376,0.028409809665381907,0.22664989709593356
1761140382707547100,10.696547119140625,-0.3359095324337482,0.03893500307202339,0.2055551596842706
1761140382717606100,10.706606201171875,-0.19049568384885787,0.07004091995358466,0.17091529652290044
1761140382727666200,10.716666259765624,-0.08338613921701908,-0.007170037759840488,0.19963073807135223
1761140382737725200,10.72672509765625,-0.04223170652985572,-0.06512713668793439,0.18243856105618178
1761140382747784200,10.7367841796875,-0.015002923342585562,-0.07143032848536968,0.14808577120788394
1761140382757844200,10.74684423828125,0.0723620563775301,-0.047885202246904374,0.10396920077949762
1761140382767903000,10.756903076171875,0.13021744849681854,-0.08987316314876079,0.06215637724883854
1761140382777963000,10.766962890625,0.1618114411562681,-0.12994886068850756,0.031508214072138066
1761140382788022000,10.77702197265625,0.10559621745944023,-0.15452975971549748,0.049169542969018216
1761140382798081000,10.7870810546875,-0.06563596299290657,-0.11252747802734374,0.08683123816959559
1761140382808141000,10.79714111328125,-0.26657880657613275,-0.06262246039062738,0.0944914705991745
1761140382818199800,10.80719970703125,-0.4165039951056242,-0.023509762664139268,0.10211246699690818
1761140382828259800,10.817259765625,-0.4279676384061575,0.0398518256559968,0.09564714344032109
1761140382838318800,10.82731884765625,-0.29268180060386656,0.026759412109851836,0.07099332530759274
1761140382848379000,10.83737890625,-0.24531682283878326,0.08447451897561549,0.059421399326995014
1761140382858438000,10.84743798828125,0.12325111661553383,0.13203706513941288,0.15796448340453206
1761140382868497000,10.857496826171875,0.5526332979947328,0.1069657522469759,0.35382176735177634
1761140382878557000,10.867556884765625,0.720852852627635,0.044535015036165713,0.32139855732657013
1761140382888616000,10.877615966796874,0.6993944695353508,-0.0015390461355447769,0.1630886945504695
1761140382898676000,10.887676025390626,0.5175818583577871,-0.0805792651027441,-0.04069989385269582
1761140382908735000,10.89773486328125,0.2426964112073183,-0.1126014200463891,-0.13612849917151032
1761140382918794000,10.9077939453125,-0.050376434540748596,-0.03647124330699444,-0.06184292738549411
1761140382928854000,10.91785400390625,-0.14876900423169134,0.14909692101180552,-0.012701368401944637
1761140382938912800,10.927912841796875,0.07982756995260715,0.16590280212312936,-0.08131671253181993
1761140382948973000,10.93797314453125,0.43173195937573905,0.012195464706420897,-0.16737915828600525
1761140382959031800,10.94803173828125,0.6414806252270937,-0.10899228963851929,-0.26129604386761784
1761140382969091800,10.958091796875,0.6476900012612342,-0.20586247206777333,-0.36471184854805466
1761140382979151000,10.968151123046875,0.5357721795648336,-0.19849545043110847,-0.3766772308256477
1761140382989209900,10.9782099609375,0.30021570324003694,-0.17239099509865044,-0.2757680021386593
1761140382999270000,10.988269775390625,0.0349433030873537,-0.16606968312263487,-0.1307781511195004
1761140383009329000,10.998328857421875,-0.10125380434095858,-0.12566869915127754,-0.11553024003989994
1761140383019389000,11.008388916015624,-0.2146750163376331,-0.10002952324301004,-0.14994930005744098
1761140383029448000,11.018447998046875,-0.27645138129293917,-0.13826719170063734,-0.22722667407058178
1761140383039507000,11.0285068359375,-0.295120425927639,-0.16908873868286609,-0.31381811213493344
1761140383049567000,11.03856689453125,-0.2830325132489204,-0.15901421165317295,-0.3629445466145873
1761140383059626000,11.0486259765625,-0.23292495877742767,-0.14203443527966736,-0.3704136403862387
1761140383069686000,11.05868603515625,-0.17860241695940493,-0.15688246032148598,-0.29193646212927993
1761140383079744800,11.068744873046874,-0.17479308780431746,-0.1601359091594815,-0.22474881271496414
1761140383089804800,11.0788046875,-0.21613281393051145,-0.10999328337460755,-0.15209924463294447
1761140383099864000,11.088864013671875,-0.22397300603687761,-0.058603287877142425,-0.08389518471769988
1761140383109922800,11.0989228515625,-0.18645605306923388,-0.009947393518686294,-0.007948109460249543
1761140383119982800,11.10898291015625,-0.15118424867987632,-0.03164981449991464,0.01728051288574934
1761140383130041900,11.119041748046875,-0.14396949499547482,-0.0694578593686223,-0.039781317703053355
1761140383140102000,11.129101806640625,-0.11377777034938334,-0.04907938046753406,-0.08550408121906221
1761140383150161200,11.1391611328125,-0.06987023956179618,0.006675824502110481,-0.14675043095089493
1761140383160220000,11.149219970703125,0.0011146832436323166,0.024069442373514174,-0.14849332909546792
1761140383170280000,11.159280029296875,0.06099661275446414,0.03915566008538007,-0.10694967789500952
1761140383180339000,11.1693388671875,0.09473872335851193,0.08720920463651419,-0.10793686230145394
1761140383190399000,11.17939892578125,0.16859540220797062,0.09947685779631137,-0.07595525856390595
1761140383200457700,11.189457763671875,0.2658656898707151,0.06221183376312255,-0.047875119244307277
1761140383210517000,11.19951708984375,0.33727263748049735,-0.02715133403688669,-0.01592858682014048
1761140383220577000,11.209576904296876,0.34214813456237314,-0.04986585467010736,0.00623012656122446
1761140383230635800,11.2196357421875,0.26123861459195613,-0.05354162057340145,0.00971270797997713
1761140383240696000,11.229696044921875,0.17703882090449333,0.015203706611692904,-0.014109481634199618
1761140383250754800,11.2397548828125,0.1114706624507904,0.044297406888008116,-0.007227832361683249
1761140383260813800,11.249813720703125,0.053090369674563404,0.040813948686420916,-0.011537366123870015
1761140383270874000,11.2598740234375,0.05648702637553215,0.05800064580887556,-0.06515921232663095
1761140383280932900,11.269932861328124,0.11596505126059055,0.04663227957636118,-0.0871951030459255
1761140383290993000,11.279992919921876,0.189208566647768,0.03062164049595594,-0.05149564782902598
1761140383301052000,11.290052001953125,0.2789098803609609,0.01511807415485382,-0.04966331783533096
1761140383311112000,11.30011181640625,0.3113707189828157,-0.010296937608718871,-0.04336392543017864
1761140383321170700,11.310170654296876,0.2878600795358419,-0.04668605559021234,-0.042525574909895655
1761140383331230000,11.32022998046875,0.21963293100595474,-0.06906593744158744,-0.06891944164298475
1761140383341290000,11.3302900390625,0.18029168522059916,-0.06592500906735659,-0.11832323175929486
1761140383351349000,11.340348876953126,0.23088614642620087,-0.0447077412545681,-0.08542122524119913
1761140383361409000,11.350408935546875,0.2522387310564518,-0.03127747405618429,0.010620178213715553
1761140383371467800,11.3604677734375,0.18984452646374703,0.020903087297081947,0.04873414722643792
1761140383381527000,11.370527099609374,-0.04525017756819725,0.11550064861923455,0.01965337949693203
1761140383391587000,11.380587158203125,0.014155951124429703,0.09873480725735426,0.18009784314893185
1761140383401645800,11.390645751953125,-0.14818448234200476,0.02948883707374334,0.23672997708357868
1761140383411705900,11.400705810546874,-0.1673801811993122,-0.008007073105871678,-0.009801336111500858
1761140383421764900,11.410764892578126,-0.08308277235627173,-0.05273936427980661,-0.23669264074787497
1761140383431824000,11.420823974609375,0.03404372389912605,-0.09850801276415586,-0.2962950957302004
1761140383441884200,11.43088427734375,0.09354746774733066,-0.10754559796154499,-0.20116737305410204
1761140383451943000,11.44094287109375,0.07995441120266913,-0.09016717765927314,-0.07451660406291484
1761140383462003000,11.4510029296875,0.046070261779427524,-0.007874386636912822,-0.05091346402689814
1761140383472062000,11.46106201171875,0.018943769922852516,0.004780804535746574,-0.028442250630259513
1761140383482122000,11.4711220703125,0.008844985234737396,-0.0013423545196652412,-0.0399281057626009
1761140383492180700,11.4811806640625,-0.10038871194422244,-0.019463702143728733,-0.11324600156024098
1761140383502240000,11.491239990234375,-0.2252203757494688,-0.06350684200972319,-0.09344546867758036
