time,seconds_elapsed,z,y,x
1761140372084769500,0.07376953125,0.14993201196193695,0.01712784171104431,0.08464375138282776
1761140372094829300,0.083829345703125,0.134377121925354,0.023019222542643547,0.10460441559553146
1761140372104888300,0.093888427734375,0.12615807354450226,0.04883324354887009,0.14194698631763458
1761140372114948400,0.1039482421875,0.1258537918329239,0.079838328063488,0.17481876909732819
1761140372125007400,0.11400732421875,0.12314881384372711,0.07953739166259766,0.18914178013801575
1761140372135067400,0.1240673828125,0.12312257289886475,0.07920731604099274,0.19747206568717957
1761140372145126400,0.13412646484375,0.12792319059371948,0.1126912385225296,0.21297939121723175
1761140372155186400,0.1441865234375,0.14291778206825256,0.13502082228660583,0.22931446135044098
1761140372165245200,0.1542451171875,0.14912214875221252,0.1309208869934082,0.2270859330892563
1761140372175305500,0.164305419921875,0.1349230408668518,0.10001054406166077,0.22480106353759766
1761140372185364500,0.174364501953125,0.10845789313316345,0.054216429591178894,0.21936076879501343
1761140372195424300,0.18442431640625,0.11890759319067001,0.013181954622268677,0.21390722692012787
1761140372205483500,0.1944833984375,0.16656166315078735,-0.017448924481868744,0.22271376848220825
1761140372215542300,0.204542236328125,0.2179553508758545,-0.0011554379016160965,0.23929540812969208
1761140372225602300,0.214602294921875,0.2457592636346817,0.015524297952651978,0.23722872138023376
1761140372235661300,0.224661376953125,0.24572688341140747,-0.004665898159146309,0.19614478945732117
1761140372245721300,0.234721435546875,0.2292187213897705,-0.06135767325758934,0.11250262707471848
1761140372255780400,0.2447802734375,0.18200308084487915,-0.08146427571773529,0.018931709229946136
1761140372265840400,0.25484033203125,0.1018187552690506,-0.048898082226514816,-0.06372615694999695
1761140372275899400,0.2648994140625,0.030152935534715652,0.007795538287609816,-0.12011156976222992
1761140372285959400,0.27495947265625,-0.007193372119218111,0.0716959610581398,-0.1439087688922882
1761140372296018400,0.285018310546875,-0.02210177108645439,0.11822710931301117,-0.13957932591438293
1761140372306078500,0.295078369140625,0.0057879164814949036,0.11434715241193771,-0.11579730361700058
1761140372316137200,0.30513720703125,0.03344763442873955,0.08926299214363098,-0.08229456096887589
1761140372326197500,0.315197509765625,0.05319444090127945,0.03559843450784683,-0.06863760203123093
1761140372336256300,0.32525634765625,0.07746168226003647,0.009775185026228428,-0.06152597814798355
1761140372346316300,0.33531640625,0.09523455053567886,0.009912869893014431,-0.05591389909386635
1761140372356375600,0.34537548828125,0.10527664422988892,0.011267289519309998,-0.06468341499567032
1761140372366435300,0.355435302734375,0.11434364318847656,0.009133298881351948,-0.06453268229961395
1761140372376494300,0.365494384765625,0.12620967626571655,0.019168704748153687,-0.06228161230683327
1761140372386554400,0.375554443359375,0.12458807229995728,0.037213221192359924,-0.05242365971207619
1761140372396613400,0.38561328125,0.1108555942773819,0.06632017344236374,-0.03568142279982567
1761140372406673400,0.39567333984375,0.10772185027599335,0.07764020562171936,-0.027722835540771484
1761140372416732400,0.405732421875,0.12036120891571045,0.048424843698740005,-0.018756946548819542
1761140372426792400,0.41579248046875,0.13422510027885437,-0.005924948491156101,-0.0006855335086584091
1761140372436851200,0.425851318359375,0.13404598832130432,-0.05128481611609459,0.03447076678276062
1761140372446911200,0.4359111328125,0.1286054104566574,-0.08446380496025085,0.06639088690280914
1761140372456970500,0.445970458984375,0.12382658571004868,-0.09839425981044769,0.08173463493585587
1761140372467030300,0.4560302734375,0.1170126274228096,-0.06546134501695633,0.07874204218387604
1761140372477089300,0.46608935546875,0.11015759408473969,-0.019690122455358505,0.06529197096824646
1761140372487148300,0.476148193359375,0.1028810366988182,0.015568001195788383,0.044267911463975906
1761140372497208300,0.486208251953125,0.0976836234331131,0.046379394829273224,0.025429682806134224
1761140372507267600,0.496267578125,0.09476107358932495,0.07855011522769928,0.024631798267364502
1761140372517327400,0.506327392578125,0.08899949491024017,0.10750845819711685,0.03228231146931648
1761140372527386400,0.516386474609375,0.0928000882267952,0.1402328461408615,0.05421663820743561
1761140372537446400,0.5264462890625,0.09266859292984009,0.1942848414182663,0.07748490571975708
1761140372547505400,0.53650537109375,0.08770419657230377,0.23124605417251587,0.08785738050937653
1761140372557565400,0.5465654296875,0.07171939313411713,0.21293805539608002,0.07609881460666656
1761140372567624400,0.55662451171875,0.048361070454120636,0.15826416015625,0.05985859036445618
1761140372577684500,0.5666845703125,0.03449486196041107,0.10008758306503296,0.04226720705628395
1761140372587743200,0.5767431640625,0.00957566685974598,0.03977177292108536,0.014206279069185257
1761140372597803300,0.58680322265625,-0.01847447268664837,-0.012706771492958069,-0.022341789677739143
1761140372607862500,0.596862548828125,-0.03757786005735397,-0.01878543756902218,-0.06765814125537872
1761140372617922300,0.60692236328125,-0.03803376853466034,0.004400172736495733,-0.09517040848731995
1761140372627981300,0.616981201171875,-0.03420254588127136,0.014060257002711296,-0.11867519468069077
1761140372638041600,0.62704150390625,-0.016152728348970413,0.022809144109487534,-0.1269637942314148
1761140372648100400,0.637100341796875,0.0049821180291473866,0.04065472260117531,-0.11469728499650955
1761140372658160400,0.647160400390625,0.023162880912423134,0.0541531927883625,-0.09567471593618393
1761140372668219400,0.657219482421875,0.032071422785520554,0.046831097453832626,-0.06799542158842087
1761140372678279400,0.667279541015625,0.038271620869636536,0.03758121281862259,-0.037779245525598526
1761140372688338200,0.677338134765625,0.03473601117730141,0.01723572611808777,-0.019112084060907364
1761140372698398500,0.6873984375,0.022965123876929283,-0.003600139170885086,-0.013829086907207966
1761140372708457500,0.69745751953125,0.021055636927485466,-0.00490402290597558,-0.007852154783904552
1761140372718517200,0.707517333984375,0.03141094371676445,0.01274858321994543,0.00495587382465601
1761140372728576500,0.717576416015625,0.05141022056341171,0.028442591428756714,0.014536063186824322
1761140372738635300,0.72763525390625,0.0775059163570404,0.03576323762536049,0.013211365789175034
1761140372748695300,0.7376953125,0.09560795873403549,0.029947690665721893,0.010591880418360233
1761140372758754800,0.7477548828125,0.09505940228700638,0.013560187071561813,-0.0009262437233701348
1761140372768814600,0.757814697265625,0.08221737295389175,-0.013342533260583878,-0.01707645133137703
1761140372778873600,0.76787353515625,0.07171911001205444,-0.016094274818897247,-0.01908940076828003
1761140372788933600,0.77793359375,0.05096989497542381,0.00042185140773653984,-0.010261286981403828
1761140372798992600,0.78799267578125,0.028053881600499153,0.006798219867050648,0.003911118488758802
1761140372809052700,0.798052734375,0.009063146077096462,-0.0001515652984380722,0.004474643152207136
1761140372819111700,0.808111572265625,-0.0007653138600289822,-0.020004577934741974,-0.006157717201858759
1761140372829171700,0.818171630859375,-0.0031528379768133163,-0.04923170804977417,-0.02341526746749878
1761140372839230500,0.82823046875,-0.0009900409495458007,-0.08078426867723465,-0.031412869691848755
1761140372849290500,0.83829052734375,0.004745609126985073,-0.08537635952234268,-0.03884308785200119
1761140372859349800,0.848349853515625,0.025905529037117958,-0.08668096363544464,-0.03967568650841713
1761140372869409500,0.858409423828125,0.04132257029414177,-0.09902124851942062,-0.03508972376585007
1761140372879468800,0.86846875,0.0649346113204956,-0.062299080193042755,-0.014937716536223888
1761140372889528600,0.878528564453125,0.08210081607103348,-0.02515704184770584,0.0031025358475744724
1761140372899587600,0.888587646484375,0.08450265228748322,0.0002969740889966488,0.012304333969950676
1761140372909647600,0.898647705078125,0.07627108693122864,0.0136442044749856,0.013859353959560394
1761140372919706600,0.90870654296875,0.06332424283027649,0.026006847620010376,0.017647795379161835
1761140372929766700,0.9187666015625,0.04186103120446205,0.011164785362780094,0.02351979911327362
1761140372939825400,0.928825439453125,0.022551236674189568,-0.03498721867799759,0.018242036923766136
1761140372949885700,0.9388857421875,-0.0017567649483680725,-0.09206435084342957,0.0039698900654911995
1761140372959944700,0.94894482421875,-0.01241308357566595,-0.1392499804496765,-0.005245664156973362
1761140372970003700,0.959003662109375,-0.014070102944970131,-0.161779522895813,-0.006232897751033306
1761140372980063700,0.969063720703125,-0.014316350221633911,-0.1478295475244522,0.000585541594773531
1761140372990122500,0.97912255859375,-0.005789973773062229,-0.10646799206733704,0.029231302440166473
1761140373000182500,0.9891826171875,0.010342242196202278,-0.07976694405078888,0.07892002910375595
1761140373010241800,0.99924169921875,0.030223539099097252,-0.055235762149095535,0.14209580421447754
1761140373020301600,1.009301513671875,0.03968594968318939,-0.039160072803497314,0.19632287323474884
1761140373030360600,1.019360595703125,0.029707619920372963,-0.05906160920858383,0.21956853568553925
1761140373040420600,1.029420654296875,0.006359003018587828,-0.08575156331062317,0.21530884504318237
1761140373050479600,1.039479736328125,-0.012903374619781971,-0.09822527319192886,0.1922762244939804
1761140373060539600,1.04953955078125,-0.03315636143088341,-0.09605073183774948,0.15549425780773163
1761140373070598700,1.0595986328125,-0.05039234086871147,-0.1105833351612091,0.1070132702589035
1761140373080658700,1.06965869140625,-0.04854835942387581,-0.10165859013795853,0.07266239821910858
1761140373090717400,1.079717529296875,-0.0339806005358696,-0.044379059225320816,0.057404883205890656
1761140373100777700,1.08977783203125,-0.02533535100519657,0.009501024149358273,0.06008210778236389
1761140373110836700,1.099836669921875,-0.03820827230811119,0.020370183512568474,0.06246350705623627
1761140373120896500,1.109896484375,-0.0511273629963398,0.0015114680863916874,0.06968045234680176
1761140373130955800,1.119955810546875,-0.06766186654567719,-0.02845761552453041,0.07773251831531525
1761140373141015600,1.130015625,-0.08297326415777206,-0.04690971225500107,0.07958924025297165
1761140373151074600,1.140074462890625,-0.10016130656003952,-0.05255721136927605,0.0698322132229805
1761140373161134600,1.150134521484375,-0.10824703425168991,-0.03906668722629547,0.05422093719244003
1761140373171193600,1.160193603515625,-0.11377682536840439,-0.01966901868581772,0.0402342826128006
1761140373181252600,1.170252685546875,-0.10463985800743103,-0.009782198816537857,0.035908911377191544
1761140373191312600,1.180312744140625,-0.09159409254789352,-0.01289490144699812,0.03903892636299133
1761140373201371600,1.19037158203125,-0.06775413453578949,-0.02691074088215828,0.046056173741817474
1761140373211431700,1.200431640625,-0.05254988372325897,-0.04187717288732529,0.056538909673690796
1761140373221490700,1.21049072265625,-0.04185093194246292,-0.04881669953465462,0.061010897159576416
1761140373231550700,1.22055078125,-0.028461355715990067,-0.04522276297211647,0.0666075348854065
1761140373241609500,1.230609375,-0.008841616101562977,-0.035422950983047485,0.07449638098478317
1761140373251669800,1.240669677734375,0.006289666052907705,-0.0287711713463068,0.07044810801744461
1761140373261728500,1.250728515625,0.017420677468180656,-0.024896860122680664,0.06488925218582153
1761140373271788500,1.26078857421875,0.008755550719797611,-0.02739224210381508,0.04729560762643814
1761140373281847800,1.270847900390625,-0.005443112924695015,-0.03810710832476616,0.02319498360157013
1761140373291907600,1.280907470703125,-0.017495781183242798,-0.04858451709151268,-0.0005170033546164632
1761140373301966600,1.290966552734375,-0.02364891953766346,-0.06547634303569794,-0.01231166161596775
1761140373312026600,1.301026611328125,-0.02706895023584366,-0.09357881546020508,-0.009855694137513638
1761140373322085600,1.311085693359375,-0.025399381294846535,-0.1334555745124817,0.019520001485943794
1761140373332145700,1.321145751953125,-0.004287438467144966,-0.15745918452739716,0.08702313899993896
1761140373342204700,1.33120458984375,0.03852258622646332,-0.15809208154678345,0.1728343963623047
1761140373352264700,1.3412646484375,0.07085655629634857,-0.17056632041931152,0.2509813904762268
1761140373362323500,1.351323486328125,0.0818413570523262,-0.13651813566684723,0.29845380783081055
1761140373372382700,1.3613828125,0.08318252861499786,-0.10365179181098938,0.2975291609764099
1761140373382442800,1.37144287109375,0.08198170363903046,-0.06320983171463013,0.2685670256614685
1761140373392501500,1.38150146484375,0.07048730552196503,-0.02990545704960823,0.21146932244300842
1761140373402561800,1.391561767578125,0.06545692682266235,-0.030859723687171936,0.16365168988704681
1761140373412620500,1.40162060546875,0.04260167479515076,-0.02064543589949608,0.13605840504169464
1761140373422680600,1.4116806640625,0.01323205791413784,-0.05891074985265732,0.1085062325000763
1761140373432739800,1.42173974609375,-0.000930632115341723,-0.09106416255235672,0.09121512621641159
1761140373442799600,1.431799560546875,-0.0010829445673152804,-0.10429750382900238,0.1000254824757576
1761140373452858600,1.441858642578125,-0.0025319703854620457,-0.10844351351261139,0.11356419324874878
1761140373462918400,1.45191845703125,-0.0013880889164283872,-0.10312464833259583,0.1317501664161682
1761140373472977700,1.461977783203125,-0.0007438702741637826,-0.09997173398733139,0.1338849514722824
1761140373483037700,1.47203759765625,-0.0023089898750185966,-0.08817136287689209,0.12172185629606247
1761140373493096700,1.4820966796875,-0.0014261518372222781,-0.07041260600090027,0.0886765569448471
1761140373503156700,1.49215673828125,0.0005013059708289802,-0.06117980182170868,0.041574738919734955
1761140373513215500,1.502215576171875,-0.006488959304988384,-0.049363620579242706,-0.00003688863944262266
1761140373523275500,1.512275634765625,-0.02037189155817032,-0.029123710468411446,-0.026716522872447968
1761140373533334800,1.522334716796875,-0.03259579837322235,-0.018726196140050888,-0.04118973761796951
1761140373543394600,1.53239453125,-0.04364658519625664,-0.0285431407392025,-0.03950076177716255
1761140373553453600,1.54245361328125,-0.04980621114373207,-0.04057903215289116,-0.024788927286863327
1761140373563512600,1.5525126953125,-0.05557958036661148,-0.05434275045990944,-0.0076494375243783
1761140373573572600,1.562572509765625,-0.0467248372733593,-0.06826601922512054,0.008812892250716686
1761140373583631600,1.572631591796875,-0.03798830509185791,-0.09088306128978729,0.02178141660988331
1761140373593691600,1.582691650390625,-0.03373124450445175,-0.10244597494602203,0.035417333245277405
1761140373603750700,1.592750732421875,-0.03572900593280792,-0.10098564624786377,0.05135537311434746
1761140373613810400,1.602810546875,-0.03283308446407318,-0.10956129431724548,0.05528832972049713
1761140373623869700,1.61286962890625,-0.02394617162644863,-0.11581039428710938,0.06146415323019028
1761140373633929700,1.6229296875,-0.016641652211546898,-0.0835331454873085,0.08000188320875168
1761140373643988700,1.63298876953125,-0.010347454808652401,-0.05084618926048279,0.09200852364301682
1761140373654048800,1.643048828125,-0.004550019279122353,0.00828477367758751,0.08486725389957428
1761140373664107500,1.653107421875,0.017334146425127983,0.04359954968094826,0.061804063618183136
1761140373674167600,1.66316748046875,0.017458781599998474,0.046953536570072174,0.028162213042378426
1761140373684226600,1.6732265625,0.011961069889366627,0.03210341930389404,0.011058332398533821
1761140373694286600,1.68328662109375,0.0029750317335128784,0.02294800616800785,-0.005132888909429312
1761140373704345600,1.693345703125,0.0002958380791824311,0.011743029579520226,-0.023397160694003105
1761140373714405600,1.703405517578125,0.018823448568582535,0.028406959027051926,-0.03147798776626587
1761140373724464600,1.713464599609375,0.032630469650030136,0.04790358990430832,-0.0377865731716156
1761140373734523600,1.723523681640625,0.05343322083353996,0.05011747032403946,-0.03313802555203438
1761140373744583700,1.733583740234375,0.07544168084859848,0.06626135855913162,-0.02123400941491127
1761140373754642700,1.743642578125,0.0913921520113945,0.0801129937171936,-0.011534245684742928
1761140373764702700,1.75370263671875,0.09998941421508789,0.09687119722366333,0.0018346026772633195
1761140373774762000,1.763761962890625,0.09378185123205185,0.08556979894638062,0.02117767371237278
1761140373784821800,1.77382177734375,0.07783927768468857,0.055435799062252045,0.0360562689602375
1761140373794880800,1.783880859375,0.06556530296802521,0.022812604904174805,0.049666088074445724
1761140373804940800,1.79394091796875,0.054578837007284164,-0.0032234112732112408,0.05598239600658417
1761140373814999800,1.803999755859375,0.05172685906291008,-0.01894138753414154,0.0544433556497097
1761140373825059800,1.814059814453125,0.0631958469748497,-0.016702350229024887,0.046514369547367096
1761140373835118800,1.824118896484375,0.07670233398675919,-0.0019034307915717363,0.032841965556144714
1761140373845179000,1.834178955078125,0.09364629536867142,0.018235236406326294,0.019471386447548866
1761140373855237600,1.844237548828125,0.10457777231931686,0.03043144941329956,0.003933173604309559
1761140373865298000,1.8542978515625,0.1130421832203865,0.033277466893196106,-0.009423778392374516
1761140373875357000,1.86435693359375,0.11846810579299927,0.026842471212148666,-0.015487530268728733
1761140373885416700,1.874416748046875,0.11006423830986023,0.01459161750972271,-0.029123004525899887
1761140373895476000,1.88447607421875,0.09313372522592545,0.014016374945640564,-0.04305826127529144
1761140373905534700,1.89453466796875,0.07056526094675064,0.019707737490534782,-0.060640089213848114
1761140373915594800,1.9045947265625,0.05606009066104889,0.03965667635202408,-0.07240753620862961
1761140373925653800,1.91465380859375,0.04403920844197273,0.05884109437465668,-0.06910526007413864
1761140373935713800,1.9247138671875,0.04497504234313965,0.07178805023431778,-0.04179587587714195
1761140373945772800,1.934772705078125,0.05948471277952194,0.08524914085865021,0.00353831984102726
1761140373955832800,1.944832763671875,0.07528471201658249,0.10412190109491348,0.05558421090245247
1761140373965891800,1.954891845703125,0.09004729241132736,0.11518450826406479,0.0949375107884407
1761140373975952000,1.964951904296875,0.1016078069806099,0.1129399910569191,0.10416670143604279
1761140373986011000,1.975010986328125,0.10938049852848053,0.10049878060817719,0.10569699853658676
1761140373996071000,1.98507080078125,0.0924832746386528,0.11414454877376556,0.08795369416475296
1761140374006129700,1.995129638671875,0.059065792709589005,0.10617496818304062,0.04841341823339462
1761140374016189700,2.005189697265625,0.0317995510995388,0.08608195185661316,0.0072875553742051125
1761140374026248700,2.015248779296875,-0.01027617696672678,0.048942383378744125,-0.04149116575717926
1761140374036308700,2.025308837890625,-0.030684778466820717,0.013748443685472012,-0.07809365540742874
1761140374046368000,2.035367919921875,-0.032670505344867706,0.0010063853114843369,-0.10342257469892502
1761140374056426800,2.0454267578125,-0.002299284329637885,0.004593131132423878,-0.11860951781272888
1761140374066486800,2.05548681640625,0.015787307173013687,0.03559818118810654,-0.10455148667097092
1761140374076545800,2.0655458984375,0.02241751365363598,0.0763019397854805,-0.08208559453487396
1761140374086605800,2.075605712890625,0.026932647451758385,0.09230802208185196,-0.057894326746463776
1761140374096664800,2.085664794921875,0.019837986677885056,0.08918147534132004,-0.03441829979419708
1761140374106724900,2.095724853515625,-0.0011157013941556215,0.07511778920888901,-0.014792175963521004
1761140374116783900,2.105783935546875,-0.011872741393744946,0.0525810606777668,-0.0026359115727245808
1761140374126843600,2.11584375,-0.007520242594182491,0.044785793870687485,0.0016986019909381866
1761140374136903000,2.12590283203125,0.0047715771943330765,0.03803015500307083,0.0037220718804746866
1761140374146963000,2.135962890625,0.015451908111572266,0.03235207498073578,0.009971801191568375
1761140374157021700,2.146021728515625,0.022120997309684753,0.020111653953790665,0.029653094708919525
1761140374167081700,2.156081787109375,0.0311356782913208,0.0210195891559124,0.059381429105997086
1761140374177140700,2.166140625,0.04317769408226013,0.03713410720229149,0.08052612841129303
1761140374187200800,2.17620068359375,0.037737611681222916,0.043362900614738464,0.08516092598438263
1761140374197259800,2.186259765625,0.030694350600242615,0.044866785407066345,0.0748148113489151
1761140374207319800,2.19631982421875,0.02100706845521927,0.04510505124926567,0.0651736706495285
1761140374217378800,2.20637890625,0.0022200667299330235,0.05756065249443054,0.05997917428612709
1761140374227437800,2.216437744140625,-0.011367188766598701,0.06274726241827011,0.05773905664682388
1761140374237497900,2.226497802734375,-0.02928413823246956,0.03869439288973808,0.052085697650909424
1761140374247556600,2.236556640625,-0.04364212229847908,0.0004965551197528839,0.044955309480428696
1761140374257616600,2.24661669921875,-0.05309288203716278,-0.033558350056409836,0.033411040902137756
1761140374267676000,2.256676025390625,-0.08997084945440292,-0.055658310651779175,0.0301272701472044
1761140374277735700,2.266735595703125,-0.1127946749329567,-0.03247123211622238,0.03403306007385254
1761140374287795000,2.276794921875,-0.10958603024482727,0.007010341621935368,0.03298293054103851
1761140374297855000,2.28685498046875,-0.10381416231393814,0.04147031158208847,0.029668893665075302
1761140374307913700,2.296913818359375,-0.10599901527166367,0.05915449932217598,0.024501297622919083
1761140374317973800,2.306973876953125,-0.1130279004573822,0.03796106576919556,0.010516506619751453
1761140374328032800,2.31703271484375,-0.11496816575527191,-0.021076750010252,-0.009821521118283272
1761140374338092800,2.3270927734375,-0.12667487561702728,-0.08175554871559143,-0.03960445150732994
1761140374348151800,2.33715185546875,-0.14572614431381226,-0.10086473077535629,-0.07891159504652023
1761140374358211800,2.3472119140625,-0.1586669683456421,-0.05654760077595711,-0.10725349187850952
1761140374368270800,2.357270751953125,-0.16441728174686432,0.011306638829410076,-0.13437893986701965
1761140374378329900,2.367329833984375,-0.16609826683998108,0.07495831698179245,-0.1456097662448883
1761140374388390000,2.377389892578125,-0.16541627049446106,0.11043526977300644,-0.13667906820774078
1761140374398448600,2.38744873046875,-0.16424821317195892,0.10894203186035156,-0.1165868490934372
1761140374408508700,2.3975087890625,-0.16206829249858856,0.06702549755573273,-0.09030771255493164
1761140374418568000,2.40756787109375,-0.15797102451324463,0.02094375714659691,-0.06827857345342636
1761140374428627700,2.417627685546875,-0.1637573093175888,-0.00018002837896347046,-0.0604717843234539
1761140374438686700,2.427686767578125,-0.16287767887115479,0.009106414392590523,-0.05974021181464195
1761140374448746800,2.437746826171875,-0.1533605456352234,0.031237807124853134,-0.06335993111133575
1761140374458805800,2.4478056640625,-0.1402958631515503,0.0525931641459465,-0.06082674115896225
1761140374468865800,2.45786572265625,-0.12755803763866425,0.06529218703508377,-0.04912378638982773
1761140374478924800,2.4679248046875,-0.10674010217189789,0.055577509105205536,-0.024429893121123314
1761140374488984800,2.47798486328125,-0.08842134475708008,0.018663490191102028,-0.008624253794550896
1761140374499043600,2.488043701171875,-0.07644110918045044,-0.03646261617541313,0.000472571118734777
1761140374509103900,2.498103759765625,-0.06272173672914505,-0.06900539994239807,0.0007267276523634791
1761140374519163000,2.508162841796875,-0.05392051860690117,-0.0726906806230545,-0.009907275438308716
1761140374529222000,2.518221923828125,-0.05421656742691994,-0.04986385256052017,-0.012494582682847977
1761140374539282000,2.528281982421875,-0.04809342697262764,-0.000649966299533844,-0.013556384481489658
1761140374549340700,2.538340576171875,-0.03127498924732208,0.03548943251371384,-0.007236301898956299
1761140374559400700,2.548400634765625,-0.017328014597296715,0.032541848719120026,-0.00423332117497921
1761140374569460000,2.5584599609375,-0.012908775359392166,0.016942162066698074,-0.006044713780283928
1761140374579519700,2.568519775390625,-0.010685835033655167,0.0012252507731318474,-0.006095313932746649
1761140374589578800,2.578578857421875,-0.017317533493041992,-0.02111624926328659,-0.0043076700530946255
1761140374599638800,2.588638671875,-0.012230096384882927,-0.03231218084692955,-0.001307352795265615
1761140374609697800,2.59869775390625,-0.006119962781667709,-0.015757931396365166,0.02794707380235195
1761140374619757800,2.6087578125,0.0027515592519193888,0.024627041071653366,0.06733096390962601
1761140374629816800,2.61881689453125,0.0069335950538516045,0.040739864110946655,0.10767266154289246
1761140374639876900,2.628876953125,0.0015058068092912436,0.02969866618514061,0.12829698622226715
1761140374649935600,2.638935546875,-0.013396177440881729,-0.007732863072305918,0.12309742718935013
1761140374659995000,2.648994873046875,-0.025279736146330833,-0.04822249710559845,0.10399670153856277
1761140374670055000,2.659054931640625,-0.029885532334446907,-0.06895429641008377,0.07143058627843857
1761140374680114000,2.669114013671875,-0.05585161969065666,-0.09063216298818588,0.033639535307884216
1761140374690174000,2.679174072265625,-0.06902116537094116,-0.08560039103031158,0.006948580965399742
1761140374700232700,2.689232666015625,-0.08110179752111435,-0.08219953626394272,-0.016459805890917778
1761140374710292700,2.699292724609375,-0.08098967373371124,-0.10908494889736176,-0.030987882986664772
1761140374720351700,2.709351806640625,-0.08428853750228882,-0.15654008090496063,-0.042197130620479584
1761140374730411800,2.719411865234375,-0.09236874431371689,-0.19047315418720245,-0.05084729567170143
1761140374740470800,2.729470703125,-0.10054758191108704,-0.1786159723997116,-0.05373869091272354
1761140374750530800,2.73953076171875,-0.11476921290159225,-0.14639796316623688,-0.06634747236967087
1761140374760589600,2.749589599609375,-0.13894245028495789,-0.09093283861875534,-0.0815887376666069
1761140374770649300,2.7596494140625,-0.15599298477172852,-0.03180526942014694,-0.08176641911268234
1761140374780708600,2.76970849609375,-0.16260695457458496,-0.0013893069699406624,-0.06572220474481583
1761140374790768600,2.7797685546875,-0.16177630424499512,-0.01724204048514366,-0.04220676049590111
1761140374800827400,2.789827392578125,-0.15402454137802124,-0.05638786405324936,-0.013602722436189651
1761140374810886700,2.79988671875,-0.15772424638271332,-0.09822557866573334,0.0026465095579624176
1761140374820946400,2.809946533203125,-0.15524937212467194,-0.10569468140602112,0.0025916483718901873
1761140374831005700,2.820005615234375,-0.13894298672676086,-0.07933131605386734,0.0001327528734691441
1761140374841065500,2.8300654296875,-0.1201847493648529,-0.048432521522045135,0.0016877725720405579
1761140374851124500,2.84012451171875,-0.09978112578392029,-0.011295420117676258,0.004786670207977295
1761140374861184500,2.8501845703125,-0.09265370666980743,-0.013449651189148426,0.00019564660033211112
1761140374871243500,2.860243408203125,-0.08357241004705429,-0.05207306146621704,-0.013904768973588943
1761140374881303600,2.870303466796875,-0.08251034468412399,-0.08354629576206207,-0.019629234448075294
1761140374891362300,2.8803623046875,-0.09032638370990753,-0.10121141374111176,-0.019784096628427505
1761140374901422600,2.890422607421875,-0.10554075241088867,-0.09600653499364853,-0.02987081930041313
1761140374911481600,2.900481689453125,-0.1122564896941185,-0.08349504321813583,-0.03872170299291611
1761140374921541400,2.910541259765625,-0.11173956841230392,-0.07709759473800659,-0.051773324608802795
1761140374931600600,2.9206005859375,-0.10548347979784012,-0.08002814650535583,-0.05482925474643707
1761140374941659400,2.930659423828125,-0.09434401243925095,-0.08096504211425781,-0.048278409987688065
1761140374951719400,2.940719482421875,-0.07616788148880005,-0.09164406359195709,-0.038479000329971313
1761140374961778400,2.9507783203125,-0.060568153858184814,-0.11078020185232162,-0.03298090398311615
1761140374971838500,2.96083837890625,-0.05146612972021103,-0.13884368538856506,-0.032179202884435654
1761140374981897500,2.9708974609375,-0.05657966434955597,-0.15218505263328552,-0.033804263919591904
1761140374991957500,2.98095751953125,-0.06496959924697876,-0.14093922078609467,-0.05316220596432686
1761140375002016500,2.9910166015625,-0.06896034628152847,-0.11100048571825027,-0.06707083433866501
1761140375012076500,3.00107666015625,-0.07258020341396332,-0.07284337282180786,-0.08295769989490509
1761140375022135600,3.011135498046875,-0.08551597595214844,-0.022199897095561028,-0.09371500462293625
1761140375032195600,3.021195556640625,-0.08727085590362549,0.013173382729291916,-0.09267069399356842
1761140375042254300,3.03125439453125,-0.07810159027576447,0.010995449498295784,-0.0775601789355278
1761140375052314600,3.041314697265625,-0.07355482876300812,0.005700294394046068,-0.035928625613451004
1761140375062373400,3.051373291015625,-0.0732933059334755,-0.009718609973788261,0.016720205545425415
1761140375072432600,3.0614326171875,-0.06927099078893661,-0.02870076149702072,0.06728138774633408
1761140375082492700,3.07149267578125,-0.06306582689285278,-0.034252118319272995,0.1017962172627449
1761140375092551400,3.081551513671875,-0.06180783361196518,-0.027321094647049904,0.11552823334932327
1761140375102611500,3.091611572265625,-0.05970846489071846,-0.003943067044019699,0.11284429579973221
1761140375112670500,3.10167041015625,-0.0632149800658226,0.02679401822388172,0.09496565163135529
1761140375122730500,3.11173046875,-0.06821160763502121,0.04417247325181961,0.07584628462791443
1761140375132789500,3.12178955078125,-0.07503529638051987,0.04335290938615799,0.0556623674929142
1761140375142849500,3.131849609375,-0.08341600000858307,0.05471262335777283,0.037039149552583694
1761140375152908500,3.141908447265625,-0.08534271270036697,0.05651143938302994,0.018138471990823746
1761140375162968300,3.15196826171875,-0.07428926229476929,0.04947084188461304,0.007298341020941734
1761140375173027600,3.162027587890625,-0.06543813645839691,0.036660224199295044,-0.006032554432749748
1761140375183087600,3.172087646484375,-0.053123943507671356,0.01821676827967167,-0.024793991819024086
1761140375193146400,3.182146484375,-0.03423178195953369,-0.008609340526163578,-0.044537290930747986
1761140375203205600,3.19220556640625,-0.02320416457951069,-0.025405099615454674,-0.06944716721773148
1761140375213265400,3.202265380859375,-0.011769423261284828,-0.03199978172779083,-0.08399215340614319
1761140375223324400,3.212324462890625,-0.006892909295856953,-0.03607788309454918,-0.09376968443393707
1761140375233384700,3.222384765625,0.006304790265858173,-0.04513012245297432,-0.090428926050663
1761140375243443500,3.232443359375,0.02014710195362568,-0.04127785935997963,-0.07472293823957443
1761140375253503500,3.24250341796875,0.03125694766640663,-0.034259308129549026,-0.05884725600481033
1761140375263562500,3.2525625,0.04181424900889397,-0.03014259599149227,-0.04191301390528679
1761140375273622500,3.26262255859375,0.06058592349290848,-0.034167494624853134,-0.03101935237646103
1761140375283681300,3.272681396484375,0.08278018236160278,-0.045728009194135666,-0.016306987032294273
1761140375293741600,3.282741455078125,0.09157610684633255,-0.055306561291217804,0.002303849905729294
1761140375303800600,3.292800537109375,0.09800870716571808,-0.056818440556526184,0.016269465908408165
1761140375313860400,3.3028603515625,0.09088986366987228,-0.0662209615111351,0.026302482932806015
1761140375323919600,3.312919677734375,0.0783463716506958,-0.09002509713172913,0.03883584961295128
1761140375333978400,3.322978271484375,0.06096816435456276,-0.09640007466077805,0.04607796296477318
1761140375344038400,3.333038330078125,0.049275290220975876,-0.08160381764173508,0.04781141132116318
1761140375354097700,3.34309765625,0.04395356774330139,-0.0627673789858818,0.040681466460227966
1761140375364157400,3.353157470703125,0.04311094433069229,-0.042552925646305084,0.02119937539100647
1761140375374216400,3.363216552734375,0.0468069426715374,-0.013500822708010674,0.010679312981665134
1761140375384276500,3.3732763671875,0.048049040138721466,0.003605725709348917,-0.003884982317686081
1761140375394335500,3.38333544921875,0.045445576310157776,-0.003399414010345936,-0.006695016287267208
1761140375404395500,3.3933955078125,0.038886744529008865,-0.010333219543099403,0.0088458601385355
1761140375414454500,3.40345458984375,0.020614594221115112,-0.01381615735590458,0.042403776198625565
1761140375424514600,3.4135146484375,-0.001731191179715097,0.011027675122022629,0.08225398510694504
1761140375434573300,3.4235732421875,-0.014722218737006187,0.02809358760714531,0.10874506831169128
1761140375444633600,3.433633544921875,-0.021442439407110214,0.034689437597990036,0.11184871941804886
1761140375454692600,3.443692626953125,-0.0270655769854784,0.02494029328227043,0.09626753628253937
1761140375464751400,3.45375146484375,-0.03747853636741638,0.008132550865411758,0.0678553357720375
1761140375474811600,3.463811767578125,-0.04838528856635094,0.014873770996928215,0.03567463532090187
1761140375484870400,3.473870361328125,-0.05315953493118286,0.05201847851276398,0.012717918492853642
1761140375494930400,3.483930419921875,-0.05209073796868324,0.08146068453788757,-0.011090874671936035
1761140375504989700,3.49398974609375,-0.0474935881793499,0.08711617439985275,-0.028711413964629173
1761140375515049500,3.504049560546875,-0.032685816287994385,0.07578863203525543,-0.02495906502008438
1761140375525108500,3.5141083984375,-0.006050210911780596,0.07909440994262695,0.0051764678210020065
1761140375535168500,3.52416845703125,0.0007558378856629133,0.07003583014011383,0.024448299780488014
1761140375545227500,3.5342275390625,0.021038206294178963,0.04314003884792328,0.02953067608177662
1761140375555287600,3.54428759765625,0.03829702362418175,0.01710769347846508,0.023365503177046776
1761140375565346600,3.5543466796875,0.05817032977938652,0.010335540398955345,0.009820932522416115
1761140375575405600,3.564405517578125,0.08129608631134033,0.012333812192082405,-0.016189763322472572
1761140375585465300,3.57446533203125,0.1157107800245285,0.007760099601000547,-0.04473032429814339
1761140375595524600,3.584524658203125,0.14794743061065674,-0.00621179910376668,-0.06335797905921936
1761140375605584600,3.594584716796875,0.16424596309661865,-0.019515354186296463,-0.06524110585451126
1761140375615643400,3.604643310546875,0.16994629800319672,-0.02874850109219551,-0.046355653554201126
1761140375625703700,3.61470361328125,0.16457043588161469,-0.02591116912662983,-0.0165863074362278
1761140375635762400,3.624762451171875,0.16234518587589264,-0.0040006935596466064,0.006707341410219669
1761140375645822500,3.634822509765625,0.15746493637561798,0.009519643150269985,0.0033235291484743357
1761140375655881500,3.644881591796875,0.15687452256679535,0.006399483419954777,-0.01696096919476986
1761140375665941500,3.65494140625,0.17219914495944977,0.05345647409558296,-0.035459551960229874
1761140375676000500,3.66500048828125,0.17807109653949738,0.14681221544742584,-0.0780249834060669
1761140375686059500,3.6750595703125,0.2534042298793793,0.24554306268692017,-0.13760842382907867
1761140375696119600,3.68511962890625,0.2869405746459961,0.3467903733253479,-0.20517034828662872
1761140375706178300,3.69517822265625,0.32844728231430054,0.42783889174461365,-0.27612385153770447
1761140375716238600,3.705238525390625,0.3368349075317383,0.4288868308067322,-0.34491437673568726
1761140375726297600,3.715297607421875,0.31350427865982056,0.37951210141181946,-0.38817930221557617
1761140375736357400,3.725357421875,0.25011977553367615,0.24864697456359863,-0.42592647671699524
1761140375746416600,3.735416748046875,0.16832932829856873,0.09821431338787079,-0.4356110394001007
1761140375756476000,3.745475830078125,0.09315098077058792,-0.01739054173231125,-0.38532111048698425
1761140375766535000,3.755534912109375,0.04332617297768593,-0.09226185083389282,-0.2902076244354248
1761140375776595000,3.765594970703125,-0.013927298597991467,-0.12748490273952484,-0.18997181951999664
1761140375786654000,3.775654052734375,-0.06505545973777771,-0.14090405404567719,-0.08600439131259918
1761140375796713700,3.785713623046875,-0.10107987374067307,-0.11526479572057724,0.008599118329584599
1761140375806773000,3.79577294921875,-0.10676785558462143,-0.06297922134399414,0.08714452385902405
1761140375816831700,3.805831787109375,-0.09235141426324844,0.0023510553874075413,0.12590092420578003
1761140375826891800,3.815891845703125,-0.0708884671330452,0.06709862500429153,0.13076838850975037
1761140375836950800,3.82595068359375,-0.02924533188343048,0.10842887312173843,0.09853672981262207
1761140375847010800,3.8360107421875,-0.0028376933187246323,0.12315109372138977,0.03649865835905075
1761140375857070000,3.846070068359375,0.0006921347230672836,0.11466669291257858,-0.03478683903813362
1761140375867129900,3.8561298828125,0.0007070484571158886,0.1144602969288826,-0.10333367437124252
1761140375877188900,3.86618896484375,0.012447754852473736,0.13846521079540253,-0.13873706758022308
1761140375887249000,3.876248779296875,0.02496914006769657,0.20196402072906494,-0.15439166128635406
1761140375897308000,3.886307861328125,0.05445220693945885,0.24670082330703735,-0.15680165588855743
1761140375907368000,3.896367919921875,0.08393073827028275,0.25026679039001465,-0.15938198566436768
1761140375917427000,3.906427001953125,0.11506129801273346,0.21843846142292023,-0.1541367620229721
1761140375927486000,3.91648583984375,0.1350398063659668,0.14657120406627655,-0.15557566285133362
1761140375937545700,3.926545654296875,0.14867888391017914,0.06518889963626862,-0.16765199601650238
1761140375947605000,3.93660498046875,0.1613430231809616,0.006796957924962044,-0.17813391983509064
1761140375957665000,3.9466650390625,0.1834610551595688,-0.037000179290771484,-0.1864243447780609
1761140375967723800,3.956723876953125,0.1970285326242447,-0.04714762419462204,-0.18819774687290192
1761140375977783800,3.96678369140625,0.19235773384571075,-0.013866161927580833,-0.18160800635814667
1761140375987842800,3.9768427734375,0.1747361421585083,0.054851651191711426,-0.18248872458934784
1761140375997902800,3.98690283203125,0.14971302449703217,0.11604651808738708,-0.1830662339925766
1761140376007962000,3.996962158203125,0.11641047149896622,0.1355387270450592,-0.17739130556583405
1761140376018022000,4.00702197265625,0.07354536652565002,0.08881399780511856,-0.1427256017923355
1761140376028081000,4.017080810546875,-0.007787305861711502,-0.023269126191735268,-0.07514096051454544
1761140376038140000,4.027139892578125,-0.09636832028627396,-0.16905024647712708,0.008837115950882435
1761140376048200000,4.037199951171875,-0.18249067664146423,-0.3173060417175293,0.08248710632324219
1761140376058258700,4.0472587890625,-0.27275073528289795,-0.4562135934829712,0.12723757326602936
1761140376068318700,4.057318603515625,-0.3083057999610901,-0.514373242855072,0.16983376443386078
1761140376078378000,4.0673779296875,-0.3182968497276306,-0.47254496812820435,0.2277480661869049
1761140376088437800,4.077437744140625,-0.28463611006736755,-0.38681650161743164,0.26798391342163086
1761140376098497000,4.0874970703125,-0.20810896158218384,-0.30496010184288025,0.2896513044834137
1761140376108557000,4.09755712890625,-0.14006121456623077,-0.21252550184726715,0.295683354139328
1761140376118615800,4.10761572265625,-0.08716743439435959,-0.11919257789850235,0.29058343172073364
1761140376128675800,4.11767578125,-0.04144495353102684,-0.06728410720825195,0.2563929855823517
1761140376138734800,4.12773486328125,-0.008330069482326508,-0.048110779374837875,0.21060271561145782
1761140376148793900,4.1377939453125,0.0025798368733376265,-0.041074175387620926,0.16213852167129517
1761140376158854000,4.14785400390625,-0.014832870103418827,-0.04351627454161644,0.11179745942354202
1761140376168913000,4.157912841796875,-0.06011006981134415,-0.04526570439338684,0.06189247965812683
1761140376178973000,4.167972900390625,-0.1139044240117073,-0.029273223131895065,0.029911154881119728
1761140376189032000,4.178031982421875,-0.14804215729236603,0.008627818897366524,0.008545679040253162
1761140376199092000,4.188092041015625,-0.16545361280441284,0.09126640856266022,0.0037595368921756744
1761140376209150700,4.198150634765625,-0.15434662997722626,0.18159417808055878,-0.006318663712590933
1761140376219210800,4.208210693359375,-0.11321128904819489,0.24560591578483582,-0.02483229897916317
1761140376229270000,4.21827001953125,-0.07269075512886047,0.26291191577911377,-0.07933814823627472
1761140376239329800,4.228329833984375,-0.02674325928092003,0.26413360238075256,-0.14466291666030884
1761140376249389000,4.23838916015625,0.013642512261867523,0.24736660718917847,-0.23040737211704254
1761140376259447800,4.24844775390625,0.06836017966270447,0.21902719140052795,-0.326761394739151
1761140376269507800,4.2585078125,0.10112211853265762,0.2112976312637329,-0.41064828634262085
1761140376279566800,4.26856689453125,0.11090011149644852,0.21904432773590088,-0.4858017861843109
1761140376289627000,4.278626953125,0.11493666470050812,0.21901850402355194,-0.5305340886116028
1761140376299686000,4.288685791015625,0.13141852617263794,0.21387547254562378,-0.541861355304718
1761140376309745700,4.29874560546875,0.13808254897594452,0.20210136473178864,-0.5215063095092773
1761140376319805000,4.308804931640625,0.13826505839824677,0.16031204164028168,-0.48252353072166443
1761140376329865000,4.318864990234375,0.12899352610111237,0.09415380656719208,-0.410832017660141
1761140376339924000,4.328924072265625,0.10677973181009293,-0.011903192847967148,-0.31372326612472534
1761140376349984000,4.33898388671875,0.059959229081869125,-0.1569482684135437,-0.21666356921195984
1761140376360042800,4.349042724609375,-0.0033451535273343325,-0.3635558485984802,-0.12463793903589249
1761140376370102000,4.35910205078125,-0.0589868426322937,-0.5546850562095642,-0.05535287782549858
1761140376380161800,4.369161865234375,-0.07307393848896027,-0.6749630570411682,-0.010259830392897129
1761140376390220800,4.379220703125,-0.04669799655675888,-0.7094871997833252,0.01545858196914196
1761140376400280800,4.38928076171875,-0.027968324720859528,-0.6707549095153809,0.015323158353567123
1761140376410339800,4.39933984375,0.002937125973403454,-0.5897396802902222,-0.0014944369904696941
1761140376420399900,4.40939990234375,0.05571610853075981,-0.47464093565940857,-0.024189230054616928
1761140376430459000,4.419458984375,0.11763620376586914,-0.34629443287849426,-0.06107854098081589
1761140376440519000,4.429518798828125,0.16859842836856842,-0.2320452481508255,-0.10714811831712723
1761140376450578000,4.439577880859375,0.23142479360103607,-0.12344393879175186,-0.14604519307613373
1761140376460637700,4.4496376953125,0.2830839157104492,-0.04559937119483948,-0.18464304506778717
1761140376470697000,4.459697021484375,0.29993027448654175,-0.008153729140758514,-0.2316129505634308
1761140376480755700,4.469755615234375,0.30529505014419556,0.004333056043833494,-0.2826530933380127
1761140376490816000,4.47981591796875,0.3064228892326355,-0.007992319762706757,-0.3272053897380829
1761140376500875000,4.489875,0.3045624792575836,-0.04156040772795677,-0.34803736209869385
1761140376510934800,4.499934814453125,0.30672550201416016,-0.05848027020692825,-0.3279009461402893
1761140376520994000,4.509994140625,0.30617478489875793,-0.04965949058532715,-0.27352291345596313
1761140376531053800,4.5200537109375,0.30478912591934204,-0.01794789731502533,-0.19390587508678436
1761140376541112800,4.53011279296875,0.3045658469200134,0.04016172140836716,-0.10415001958608627
1761140376551172900,4.5401728515625,0.3183903098106384,0.09770970046520233,0.001835266943089664
1761140376561232000,4.55023193359375,0.34091123938560486,0.1303667277097702,0.10882341861724854
1761140376571291000,4.560290771484375,0.36264103651046753,0.1125941276550293,0.2191120982170105
1761140376581351000,4.570350830078125,0.3852795660495758,0.07302983105182648,0.32531192898750305
1761140376591410000,4.580409912109375,0.4057118892669678,0.04586106538772583,0.4081873595714569
1761140376601470000,4.590469970703125,0.4011407792568207,0.03346109017729759,0.4704272150993347
1761140376611529000,4.600529052734375,0.38632240891456604,0.030662378296256065,0.5051156282424927
1761140376621589000,4.610589111328125,0.3685896396636963,0.056650761514902115,0.5119938254356384
1761140376631647700,4.620647705078125,0.34946227073669434,0.11485494673252106,0.4886849820613861
1761140376641707800,4.630707763671875,0.349648654460907,0.18225575983524323,0.43386098742485046
1761140376651766800,4.640766845703125,0.36050447821617126,0.24282509088516235,0.3635021150112152
1761140376661826800,4.650826904296875,0.34703850746154785,0.274754136800766,0.25532060861587524
1761140376671886000,4.660885986328125,0.3110429644584656,0.2816232442855835,0.12808063626289368
1761140376681944800,4.67094482421875,0.2760685086250305,0.30066800117492676,0.011672496795654297
1761140376692004900,4.6810048828125,0.2575153410434723,0.3442397117614746,-0.061932485550642014
1761140376702063900,4.69106396484375,0.2514454126358032,0.3876412808895111,-0.08797095715999603
1761140376712124000,4.7011240234375,0.2384188175201416,0.4189837574958801,-0.08730436861515045
1761140376722183000,4.711182861328125,0.2257348895072937,0.41366347670555115,-0.06354209780693054
1761140376732243000,4.721242919921875,0.20750288665294647,0.37225770950317383,-0.037637531757354736
1761140376742302000,4.731302001953125,0.19558100402355194,0.28171098232269287,-0.032251376658678055
1761140376752361700,4.74136181640625,0.2001509815454483,0.1731882244348526,-0.05213133990764618
1761140376762421200,4.751421142578125,0.21574890613555908,0.07343453913927078,-0.1057075634598732
1761140376772481300,4.761481201171875,0.2584782540798187,-0.0029702186584472656,-0.17761211097240448
1761140376782540300,4.771540283203125,0.3139183819293976,-0.050639696419239044,-0.25615206360816956
1761140376792599300,4.781599365234375,0.3676178455352783,-0.07474982738494873,-0.33775877952575684
1761140376802659300,4.791659423828125,0.41396790742874146,-0.04079538956284523,-0.39904817938804626
1761140376812718300,4.80171826171875,0.45477765798568726,0.007032852154225111,-0.4412345290184021
1761140376822778000,4.811778076171875,0.4936712384223938,0.044215332716703415,-0.45347481966018677
1761140376832837400,4.82183740234375,0.5413207411766052,0.05825791880488396,-0.43499326705932617
1761140376842897400,4.8318974609375,0.5984861254692078,0.05121983215212822,-0.393174946308136
1761140376852956400,4.841956298828125,0.6377629637718201,0.020216375589370728,-0.3230096995830536
1761140376863016400,4.852016357421875,0.6709566116333008,0.002116999588906765,-0.24160192906856537
1761140376873075200,4.8620751953125,0.7007842659950256,-0.024919144809246063,-0.16976982355117798
1761140376883135200,4.87213525390625,0.7094864249229431,-0.08186817914247513,-0.10240968316793442
1761140376893194200,4.8821943359375,0.7240731120109558,-0.11326631903648376,-0.028495777398347855
1761140376903253200,4.892253173828125,0.7096132636070251,-0.13676653802394867,0.0407840870320797
1761140376913313300,4.902313232421875,0.683402955532074,-0.12069649249315262,0.10710479319095612
1761140376923372300,4.912372314453125,0.6426714062690735,-0.10459918528795242,0.14652422070503235
1761140376933432300,4.922432373046875,0.574559211730957,-0.07166147232055664,0.17294731736183167
1761140376943491300,4.9324912109375,0.49219420552253723,-0.027503900229930878,0.19121801853179932
1761140376953551400,4.94255126953125,0.38502034544944763,0.01309758797287941,0.2073644995689392
1761140376963610400,4.9526103515625,0.27671316266059875,0.08133761584758759,0.24250073730945587
1761140376973670100,4.962670166015625,0.19402092695236206,0.1449035406112671,0.28120341897010803
1761140376983729400,4.9727294921875,0.12920312583446503,0.16178229451179504,0.3085954785346985
1761140376993788200,4.9827880859375,0.08499385416507721,0.14329250156879425,0.311135858297348
1761140377003848200,4.99284814453125,0.05374924838542938,0.1271967589855194,0.2896568477153778
1761140377013907200,5.0029072265625,0.025496838614344597,0.12130984663963318,0.2301304042339325
1761140377023967200,5.01296728515625,0.007568683009594679,0.1111699640750885,0.14600184559822083
1761140377034026500,5.023026611328125,-0.006138074677437544,0.11470344662666321,0.052144598215818405
1761140377044086300,5.033086181640625,-0.022611217573285103,0.14260034263134003,-0.047583986073732376
1761140377054145300,5.043145263671875,-0.04562625661492348,0.18164734542369843,-0.14573027193546295
1761140377064205300,5.053205322265625,-0.07465599477291107,0.2272249460220337,-0.23069891333580017
1761140377074264300,5.063264404296875,-0.10805070400238037,0.2522110044956207,-0.3056437373161316
1761140377084323300,5.0733232421875,-0.12473438680171967,0.21586550772190094,-0.3668157756328583
1761140377094383400,5.08338330078125,-0.1381189078092575,0.1992417871952057,-0.4020070433616638
1761140377104442400,5.0934423828125,-0.13327939808368683,0.18594564497470856,-0.4033834636211395
1761140377114502100,5.103502197265625,-0.12415754050016403,0.15845143795013428,-0.3751145303249359
1761140377124561400,5.1135615234375,-0.10757652670145035,0.14364151656627655,-0.3111099600791931
1761140377134621400,5.123621337890625,-0.08711040019989014,0.15829768776893616,-0.24038811028003693
1761140377144680200,5.13368017578125,-0.053555626422166824,0.1413988322019577,-0.18663255870342255
1761140377154740200,5.143740234375,-0.015268957242369652,0.12786118686199188,-0.15039946138858795
1761140377164799200,5.15379931640625,0.044467344880104065,0.09767318516969681,-0.10684610903263092
1761140377174859300,5.163859375,0.11698601394891739,0.10316649079322815,-0.052787404507398605
1761140377184918500,5.17391845703125,0.14908099174499512,0.10161632299423218,-0.028210684657096863
1761140377194977300,5.183977294921875,0.17871184647083282,0.09065715223550797,-0.021770896390080452
1761140377205037300,5.194037353515625,0.1943053901195526,0.060150206089019775,-0.030494481325149536
1761140377215096300,5.204096435546875,0.17292553186416626,0.016086343675851822,-0.030837494879961014
1761140377225156400,5.21415625,0.13876676559448242,-0.013184991665184498,-0.022953741252422333
1761140377235215000,5.224215087890625,0.10195282101631165,-0.03787648677825928,-0.010782561264932156
1761140377245275100,5.234275146484375,0.04035463556647301,-0.06699597090482712,0.0023521939292550087
1761140377255334400,5.24433447265625,-0.016402920708060265,-0.06644576042890549,0.01912717893719673
1761140377265394200,5.254394287109375,-0.05574208125472069,-0.05637017637491226,0.02985980361700058
1761140377275453400,5.264453369140625,-0.08460462093353271,-0.05303137004375458,0.04189462959766388
1761140377285512200,5.27451220703125,-0.09768154472112656,-0.04583604261279106,0.05765654891729355
1761140377295572200,5.284572265625,-0.10997016727924347,-0.03425635024905205,0.06949270516633987
1761140377305631500,5.294631591796875,-0.12366867810487747,-0.030196048319339752,0.06713136285543442
1761140377315691300,5.304691162109375,-0.13785533607006073,-0.031074360013008118,0.043891821056604385
1761140377325750300,5.314750244140625,-0.15023963153362274,-0.029492434114217758,0.010128756053745747
1761140377335810300,5.324810302734375,-0.16437968611717224,-0.010983465239405632,-0.038182582706213
1761140377345869300,5.334869384765625,-0.18584270775318146,0.018451537936925888,-0.0909867212176323
1761140377355929300,5.344929443359375,-0.21382641792297363,0.038830846548080444,-0.14518845081329346
1761140377365988400,5.35498828125,-0.23983484506607056,0.05709027871489525,-0.1902984082698822
1761140377376047400,5.36504736328125,-0.2580525577068329,0.06925614178180695,-0.21085701882839203
1761140377386107100,5.375107177734375,-0.2709643840789795,0.05964803695678711,-0.2238965779542923
1761140377396166400,5.38516650390625,-0.27605876326560974,0.036227401345968246,-0.2312285304069519
1761140377406226400,5.395226318359375,-0.27417585253715515,0.01296321302652359,-0.21813027560710907
1761140377416285200,5.40528515625,-0.27306318283081055,-0.021019520238041878,-0.20791971683502197
1761140377426345500,5.415345458984375,-0.26339274644851685,-0.06504857540130615,-0.1868380606174469
1761140377436404200,5.425404296875,-0.2524687349796295,-0.09984490275382996,-0.15501701831817627
1761140377446464300,5.43546435546875,-0.23959368467330933,-0.12087801098823547,-0.11710904538631439
1761140377456523300,5.445523193359375,-0.21430137753486633,-0.11976614594459534,-0.07870892435312271
1761140377466583300,5.455583251953125,-0.1710156798362732,-0.1177704706788063,-0.03721119463443756
1761140377476642300,5.465642333984375,-0.11979535222053528,-0.0977216586470604,0.010620775632560253
1761140377486701300,5.475701416015625,-0.07984181493520737,-0.016671547666192055,0.058262065052986145
1761140377496761300,5.48576123046875,-0.0726291760802269,0.13481438159942627,0.08266860246658325
1761140377506820000,5.495820068359375,-0.07428912073373795,0.2976331412792206,0.0884346142411232
1761140377516880400,5.50588037109375,-0.060688894242048264,0.4293077886104584,0.10609110444784164
1761140377526939400,5.515939453125,-0.08838550001382828,0.4615168571472168,0.11723829805850983
1761140377536999200,5.525999267578125,-0.14415264129638672,0.3661176562309265,0.11738450825214386
1761140377547058400,5.536058349609375,-0.257612943649292,0.12534429132938385,0.08681821078062057
1761140377557118500,5.546118408203125,-0.3881094455718994,-0.2012902796268463,0.05252255126833916
1761140377567177200,5.55617724609375,-0.5196478366851807,-0.5679793953895569,0.010980532504618168
1761140377577236500,5.566236572265625,-0.6429205536842346,-0.8484494090080261,-0.00139491050504148
1761140377587296300,5.576296142578125,-0.7072402238845825,-0.8935984969139099,0.030093364417552948
1761140377597355300,5.586355224609375,-0.7124480605125427,-0.7685436606407166,0.0773618146777153
1761140377607415300,5.596415283203125,-0.6992705464363098,-0.5631299018859863,0.10665919631719589
1761140377617474300,5.606474365234375,-0.6526593565940857,-0.29602813720703125,0.11449714750051498
1761140377627534300,5.616534423828125,-0.6083044409751892,-0.12313871085643768,0.10592003911733627
1761140377637593300,5.62659326171875,-0.5842055082321167,-0.014434601180255413,0.12100259214639664
1761140377647653400,5.6366533203125,-0.585719645023346,0.057895414531230927,0.19069474935531616
1761140377657712000,5.646712158203125,-0.5834852457046509,0.040379270911216736,0.312947154045105
1761140377667771400,5.656771484375,-0.5536578297615051,-0.1232987493276596,0.4520917534828186
1761140377677831400,5.66683154296875,-0.5057116150856018,-0.3195497691631317,0.5681642889976501
1761140377687890200,5.67689013671875,-0.49126169085502625,-0.48022082448005676,0.617384135723114
1761140377697950500,5.686950439453125,-0.5083469152450562,-0.5276631116867065,0.5855620503425598
1761140377708009200,5.69700927734375,-0.5490150451660156,-0.47945207357406616,0.46272528171539307
1761140377718069200,5.7070693359375,-0.5826566219329834,-0.3610828220844269,0.3024818003177643
1761140377728128300,5.717128173828125,-0.5612484812736511,-0.15425363183021545,0.1441286951303482
1761140377738188300,5.727188232421875,-0.48840200901031494,0.04369247332215309,0.004033898003399372
1761140377748247300,5.737247314453125,-0.4099578559398651,0.17136424779891968,-0.11141693592071533
1761140377758306800,5.747306884765625,-0.3483794331550598,0.2263108491897583,-0.1688069850206375
1761140377768366600,5.75736669921875,-0.3225545883178711,0.22158683836460114,-0.15819594264030457
1761140377778425600,5.767425537109375,-0.2883486747741699,0.15895940363407135,-0.10127726197242737
1761140377788486000,5.77748583984375,-0.2724151313304901,0.039560236036777496,-0.05262530595064163
1761140377798544600,5.787544677734375,-0.2666158378124237,-0.10613065212965012,-0.010771866887807846
1761140377808604700,5.797604736328125,-0.23828011751174927,-0.19047172367572784,0.03415917605161667
1761140377818663700,5.80766357421875,-0.21909204125404358,-0.18559494614601135,0.0813533142209053
1761140377828723700,5.8177236328125,-0.21319401264190674,-0.1273370236158371,0.1065167635679245
1761140377838782700,5.82778271484375,-0.19358676671981812,-0.05151816084980965,0.11575766652822495
1761140377848841700,5.837841796875,-0.1663200855255127,-0.009132658131420612,0.10735549032688141
1761140377858901800,5.84790185546875,-0.14473915100097656,0.005118449684232473,0.11524324119091034
1761140377868960500,5.85796044921875,-0.12418276816606522,0.02383039891719818,0.13116450607776642
1761140377879020800,5.868020751953125,-0.09943906962871552,0.0748714804649353,0.17012815177440643
1761140377889079600,5.87807958984375,-0.09023045003414154,0.099481001496315,0.19489505887031555
1761140377899139600,5.8881396484375,-0.10114461928606033,0.12108217179775238,0.2034057229757309
1761140377909198800,5.89819873046875,-0.10270822793245316,0.12391157448291779,0.20254583656787872
1761140377919258600,5.908258544921875,-0.12551714479923248,0.07753714919090271,0.18294444680213928
1761140377929317600,5.918317626953125,-0.16738873720169067,0.021448582410812378,0.1533934324979782
1761140377939376600,5.928376708984375,-0.22451592981815338,-0.036568645387887955,0.11803463846445084
1761140377949436700,5.938436767578125,-0.24406783282756805,-0.05471586436033249,0.08339294046163559
1761140377959495700,5.94849560546875,-0.23063936829566956,-0.02245645970106125,0.05487874150276184
1761140377969555700,5.9585556640625,-0.20549561083316803,0.019210506230592728,0.028144288808107376
1761140377979614700,5.96861474609375,-0.18914912641048431,0.05317725986242294,0.008451279252767563
1761140377989674500,5.978674560546875,-0.16421087086200714,0.08442876487970352,0.014632566832005978
1761140377999733800,5.988733642578125,-0.13668842613697052,0.1006852313876152,0.03932778909802437
1761140378009793800,5.998793701171875,-0.1106630340218544,0.08406667411327362,0.07135962694883347
1761140378019852500,6.0088525390625,-0.09101583063602448,0.04970364272594452,0.10326828807592392
1761140378029911800,6.018911865234375,-0.09031116962432861,0.0020464258268475533,0.13370004296302795
1761140378039971600,6.0289716796875,-0.10389462113380432,-0.059407345950603485,0.14313669502735138
1761140378050030600,6.039030517578125,-0.11689036339521408,-0.10994113236665726,0.15201795101165771
1761140378060091000,6.0490908203125,-0.12474241852760315,-0.13149729371070862,0.15682974457740784
1761140378070149600,6.059149658203125,-0.12173491716384888,-0.12411873787641525,0.1564132273197174
1761140378080209700,6.069209716796875,-0.10711975395679474,-0.10940131545066833,0.14382660388946533
1761140378090268700,6.0792685546875,-0.09387245029211044,-0.07870406657457352,0.13061337172985077
1761140378100328700,6.08932861328125,-0.08725929260253906,-0.04804575815796852,0.11657637357711792
1761140378110387500,6.099387451171875,-0.08683360368013382,-0.018073804676532745,0.10547231882810593
1761140378120446700,6.10944677734375,-0.08703147619962692,0.01246679574251175,0.1030011773109436
1761140378130506800,6.1195068359375,-0.09001491963863373,0.036189500242471695,0.10708216577768326
1761140378140565800,6.129565673828125,-0.09164796769618988,0.04445941373705864,0.1116819828748703
1761140378150625800,6.139625732421875,-0.11193612217903137,0.03573612868785858,0.11651628464460373
1761140378160684500,6.1496845703125,-0.13636235892772675,0.009324494749307632,0.11392716318368912
1761140378170744600,6.15974462890625,-0.15261709690093994,-0.021991241723299026,0.10587118566036224
1761140378180803800,6.169803955078125,-0.16411130130290985,-0.06493204832077026,0.09757224470376968
1761140378190863600,6.179863525390625,-0.16943351924419403,-0.06406866759061813,0.10298945754766464
1761140378200922600,6.189922607421875,-0.16152046620845795,-0.024289295077323914,0.11347831785678864
1761140378210981600,6.199981689453125,-0.13576829433441162,-0.03418821096420288,0.11446426808834076
1761140378221041700,6.210041748046875,-0.11705107986927032,-0.00920909084379673,0.11367809772491455
1761140378231100700,6.2201005859375,-0.1115981861948967,0.009235108271241188,0.09934119135141373
1761140378241160700,6.23016064453125,-0.11100216954946518,0.034072548151016235,0.07107386738061905
1761140378251219700,6.2402197265625,-0.11017437279224396,0.06061985716223717,0.03264424204826355
1761140378261279500,6.250279541015625,-0.1034935712814331,0.07212763279676437,-0.013330172747373581
1761140378271338800,6.2603388671875,-0.09658985584974289,0.06577599793672562,-0.04721783101558685
1761140378281398800,6.270398681640625,-0.09919176250696182,0.027745794504880905,-0.06682908535003662
1761140378291457500,6.28045751953125,-0.09429149329662323,-0.00829104520380497,-0.062188487499952316
1761140378301516800,6.290516845703125,-0.08970899134874344,-0.034430503845214844,-0.04582709074020386
1761140378311576600,6.30057666015625,-0.07932300120592117,-0.02825857326388359,-0.016149576753377914
1761140378321635800,6.3106357421875,-0.06308357417583466,-0.010004734620451927,0.016103435307741165
1761140378331695600,6.320695556640625,-0.04414794594049454,-0.008544087409973145,0.05937163904309273
1761140378341754600,6.330754638671875,-0.0335746631026268,-0.004864131100475788,0.10553541034460068
1761140378351814700,6.340814697265625,-0.030121982097625732,-0.031647294759750366,0.1396290510892868
1761140378361873700,6.350873779296875,-0.030861008912324905,-0.044985733926296234,0.1697251796722412
1761140378371933700,6.36093359375,-0.04355855658650398,-0.028944076970219612,0.17494532465934753
1761140378381992700,6.37099267578125,-0.05257841572165489,-0.02501857653260231,0.1573876440525055
1761140378392051700,6.3810517578125,-0.05799908936023712,-0.008383838459849358,0.11728242039680481
1761140378402111700,6.39111181640625,-0.06819339841604233,-0.0038583283312618732,0.06072273850440979
1761140378412170800,6.401170654296875,-0.07290910929441452,-0.016071626916527748,0.00459835771471262
1761140378422230800,6.411230712890625,-0.07484283298254013,-0.053898632526397705,-0.03540951386094093
1761140378432289500,6.42128955078125,-0.07412145286798477,-0.09333328902721405,-0.03763391822576523
1761140378442349600,6.431349609375,-0.062338829040527344,-0.10425198823213577,-0.0015606043161824346
1761140378452408800,6.441408935546875,-0.05253859981894493,-0.08969839662313461,0.04830384626984596
1761140378462467600,6.451467529296875,-0.05055933818221092,-0.055836569517850876,0.09797632694244385
1761140378472527600,6.461527587890625,-0.060573332011699677,-0.0375005342066288,0.12176723778247833
1761140378482586600,6.471586669921875,-0.07668092846870422,-0.013241001404821873,0.12241411954164505
1761140378492646700,6.481646728515625,-0.09090763330459595,0.001969842240214348,0.09410182386636734
1761140378502705700,6.49170556640625,-0.10002975910902023,-0.009393067099153996,0.04603629186749458
1761140378512765700,6.501765625,-0.1064610704779625,-0.03286274895071983,-0.004954310599714518
1761140378522824700,6.51182470703125,-0.10099546611309052,-0.04013264551758766,-0.03225517272949219
1761140378532884500,6.521884521484375,-0.08281341195106506,-0.038373157382011414,-0.032616302371025085
1761140378542943700,6.53194384765625,-0.06509672850370407,-0.034040458500385284,-0.00929686613380909
1761140378553002500,6.54200244140625,-0.053626008331775665,-0.01804369129240513,0.01728561706840992
1761140378563062800,6.552062744140625,-0.04896600916981697,-0.008275482803583145,0.026284437626600266
1761140378573121800,6.562121826171875,-0.05464334413409233,-0.01191464439034462,0.013187896460294724
1761140378583181600,6.572181640625,-0.05543084070086479,-0.01581830531358719,-0.014532414264976978
1761140378593240800,6.58224072265625,-0.055414579808712006,-0.021688541397452354,-0.03706026449799538
1761140378603300600,6.592300537109375,-0.05653417110443115,-0.015515601262450218,-0.055711712688207626
1761140378613359600,6.602359619140625,-0.04869738221168518,-0.0020086481235921383,-0.06870576739311218
1761140378623419600,6.612419677734375,-0.04476655647158623,0.02667599357664585,-0.07893204689025879
1761140378633478700,6.622478759765625,-0.03781843185424805,0.05618360638618469,-0.07430688291788101
1761140378643537700,6.63253759765625,-0.01647079922258854,0.06291528046131134,-0.0582893081009388
1761140378653597700,6.64259765625,-0.008550932630896568,0.043777547776699066,-0.04049254581332207
1761140378663656700,6.65265673828125,-0.005988438613712788,0.008295455947518349,-0.025119714438915253
1761140378673716700,6.662716796875,0.0029072435572743416,-0.014614018611609936,-0.013130832463502884
1761140378683775700,6.672775634765625,0.016360200941562653,-0.027449656277894974,-0.009211990982294083
1761140378693835800,6.682835693359375,0.03374550864100456,-0.028477266430854797,0.00024555675918236375
1761140378703894500,6.69289453125,0.03224615007638931,-0.010242069140076637,0.01366149727255106
1761140378713954600,6.70295458984375,0.019269492477178574,0.04266231134533882,0.0067675476893782616
1761140378724013600,6.713013671875,0.026506632566452026,0.07482664287090302,-0.011698811315000057
1761140378734072600,6.723072509765625,0.03805636614561081,0.11204149574041367,-0.030223935842514038
1761140378744132900,6.7331328125,0.04914124310016632,0.10274866223335266,-0.046500109136104584
1761140378754191600,6.743191650390625,0.048753734678030014,0.0709996223449707,-0.04532255604863167
1761140378764251000,6.7532509765625,0.05482787266373634,0.032418668270111084,-0.029302844777703285
1761140378774310100,6.76331005859375,0.04931967332959175,-0.019662469625473022,-0.0017962888814508915
1761140378784370000,6.773369873046875,0.0438266396522522,-0.05227500572800636,0.038886427879333496
1761140378794429200,6.78342919921875,0.036584217101335526,-0.07970339804887772,0.07737907767295837
1761140378804488000,6.793488037109375,0.032730624079704285,-0.09218430519104004,0.09720844775438309
1761140378814548000,6.8035478515625,0.02722712606191635,-0.06942056119441986,0.08872801065444946
1761140378824607200,6.813607177734375,0.029661785811185837,-0.05744405835866928,0.060213010758161545
1761140378834667000,6.8236669921875,0.03576464578509331,-0.050105493515729904,0.017774613574147224
1761140378844726000,6.83372607421875,0.03746001422405243,-0.05111642926931381,-0.013054405339062214
1761140378854786000,6.8437861328125,0.03953751176595688,-0.049028102308511734,-0.03223423287272453
1761140378864845000,6.853844970703125,0.045165836811065674,-0.038375191390514374,-0.0391499288380146
1761140378874905000,6.863905029296875,0.0494208000600338,-0.011610033921897411,-0.02712921053171158
1761140378884964000,6.873964111328125,0.05552450194954872,-0.00916791521012783,-0.012732429429888725
1761140378895023000,6.884023193359375,0.050894595682621,-0.039330609142780304,0.012948965653777122
1761140378905083000,6.894082763671875,0.03433133289217949,-0.06654784828424454,0.04489544406533241
1761140378915142100,6.90414208984375,0.02205878123641014,-0.10146501660346985,0.07624082267284393
1761140378925202200,6.9142021484375,0.012253288179636002,-0.10932480543851852,0.09874186664819717
1761140378935261000,6.924260986328125,0.009163754060864449,-0.10335639864206314,0.1072610542178154
1761140378945321000,6.934321044921875,0.0013087608385831118,-0.09952570497989655,0.1019190177321434
1761140378955380000,6.9443798828125,-0.004630482755601406,-0.09183039516210556,0.07974802702665329
1761140378965440000,6.95443994140625,-0.015502838417887688,-0.07877425104379654,0.06121748685836792
1761140378975499300,6.964499267578125,-0.024245142936706543,-0.053424954414367676,0.025737827643752098
1761140378985558000,6.97455810546875,-0.02030685916543007,-0.02024170011281967,-0.012789323925971985
1761140378995618000,6.9846181640625,-0.009256361052393913,0.027884909883141518,-0.05387160927057266
1761140379005677000,6.994677001953125,0.0026381155475974083,0.060125675052404404,-0.08536375313997269
1761140379015737000,7.004737060546875,0.005814925767481327,0.07713271677494049,-0.10229361057281494
1761140379025795800,7.0147958984375,0.005909201689064503,0.08415654301643372,-0.08826647698879242
1761140379035856100,7.024856201171875,0.010456857271492481,0.07641267031431198,-0.06027618795633316
1761140379045915100,7.0349150390625,0.010407323017716408,0.04763562232255936,-0.018972158432006836
1761140379055974000,7.044973876953125,0.007260340265929699,0.020709361881017685,0.013335051946341991
1761140379066034200,7.0550341796875,0.0016101773362606764,-0.0011988659389317036,0.045039981603622437
1761140379076093000,7.065093017578125,-0.003669027704745531,-0.01896737888455391,0.05067300796508789
1761140379086153000,7.075153076171875,-0.013949361629784107,-0.020074721425771713,0.037877582013607025
1761140379096212200,7.085212158203125,-0.019071269780397415,-0.013632474467158318,0.021123109385371208
1761140379106272000,7.09527197265625,-0.020094722509384155,-0.0013430514372885227,0.0038668904453516006
1761140379116331000,7.1053310546875,-0.018873397260904312,0.015603708103299141,-0.009335730224847794
1761140379126391000,7.11539111328125,-0.009637288749217987,0.018714813515543938,-0.008691512048244476
1761140379136450000,7.125449951171875,0.010532917454838753,0.005269770976155996,-0.0007128749275580049
1761140379146509000,7.135509033203125,0.019945859909057617,-0.011561406776309013,0.01105217169970274
1761140379156569000,7.145569091796875,0.028306886553764343,-0.029203396290540695,0.03235108032822609
1761140379166628000,7.155628173828125,0.02865789085626602,-0.050689246505498886,0.03937889635562897
1761140379176687900,7.16568798828125,0.013677684590220451,-0.05114235356450081,0.0398421585559845
1761140379186747100,7.1757470703125,-0.00002055073855444789,-0.034281082451343536,0.029515748843550682
1761140379196807200,7.18580712890625,-0.0033645329531282187,-0.01771855726838112,0.011515185236930847
1761140379206866000,7.195865966796875,0.0015841529238969088,-0.006675492972135544,-0.0006381510756909847
1761140379216925200,7.20592529296875,0.008159486576914787,-0.0005752081051468849,-0.0010316824773326516
1761140379226985000,7.21598486328125,0.011922799982130527,-0.00056082708761096,-0.008327944204211235
1761140379237044000,7.2260439453125,0.017958354204893112,-0.0006339722312986851,-0.013830360025167465
1761140379247104000,7.23610400390625,0.023007707670331,0.009120920673012733,-0.022179637104272842
1761140379257163000,7.2461630859375,0.025215884670615196,0.025527119636535645,-0.029512112960219383
1761140379267223000,7.25622314453125,0.024060605093836784,0.029426518827676773,-0.018639758229255676
1761140379277282000,7.266281982421875,0.014689728617668152,0.012310697697103024,0.004778302274644375
1761140379287342000,7.276342041015625,0.0014098759274929762,-0.022798020392656326,0.03130125626921654
1761140379297400800,7.28640087890625,-0.014225009828805923,-0.05671923607587814,0.06105648726224899
1761140379307460000,7.296460205078125,-0.02678714133799076,-0.08116652071475983,0.07605141401290894
1761140379317520100,7.30652001953125,-0.036644160747528076,-0.09373733401298523,0.0713060200214386
1761140379327579100,7.3165791015625,-0.03690062090754509,-0.08070515841245651,0.05718513950705528
1761140379337639200,7.32663916015625,-0.04316424950957298,-0.053003061562776566,0.04003296419978142
1761140379347698000,7.336697998046875,-0.0434579961001873,-0.043616220355033875,0.016116976737976074
1761140379357758000,7.346758056640625,-0.042809102684259415,-0.052114568650722504,0.004687228240072727
1761140379367817200,7.356817138671875,-0.04282641038298607,-0.086081862449646,-0.023029886186122894
1761140379377876000,7.3668759765625,-0.02979075163602829,-0.11102299392223358,-0.05362338200211525
1761140379387936000,7.37693603515625,-0.02365562692284584,-0.11734027415513992,-0.0758860856294632
1761140379397995000,7.3869951171875,-0.03504355996847153,-0.1313142329454422,-0.08222855627536774
1761140379408055000,7.397054931640625,-0.0295712947845459,-0.09572374820709229,-0.06844696402549744
1761140379418114000,7.407114013671875,-0.002471851883456111,-0.05533779039978981,-0.04483215883374214
1761140379428174000,7.417174072265625,0.036959707736968994,-0.01982959546148777,-0.020006172358989716
1761140379438233000,7.427233154296875,0.0625026598572731,0.00633280910551548,-0.0025769914500415325
1761140379448292900,7.43729296875,0.07082477957010269,0.019972454756498337,-0.0018598021706566215
1761140379458352000,7.44735205078125,0.07713348418474197,0.023653214797377586,-0.011204341426491737
1761140379468411000,7.457410888671875,0.07821499556303024,0.008649498224258423,-0.026771318167448044
1761140379478471200,7.46747119140625,0.07183369249105453,-0.010575346648693085,-0.04204309359192848
1761140379488530200,7.4775302734375,0.06646715104579926,-0.017840716987848282,-0.04678777977824211
1761140379498590000,7.48758984375,0.06339056044816971,-0.031026281416416168,-0.0415736585855484
1761140379508649200,7.497649169921875,0.05991700291633606,-0.0312113706022501,-0.023862306028604507
1761140379518709000,7.507708984375,0.055810894817113876,-0.014342419803142548,0.0018812831258401275
1761140379528768000,7.51776806640625,0.05618693307042122,-0.013283280655741692,0.030713196843862534
1761140379538827000,7.527826904296875,0.06053631380200386,-0.01560295931994915,0.050299715250730515
1761140379548887000,7.537886962890625,0.06633667647838593,-0.005932488478720188,0.05933661758899689
1761140379558946000,7.547946044921875,0.06921462714672089,0.014601124450564384,0.05102844536304474
1761140379569006000,7.558006103515625,0.07363893836736679,0.03730883449316025,0.03815792128443718
1761140379579065000,7.568065185546875,0.07771433144807816,0.05238734185695648,0.021466702222824097
1761140379589125000,7.578125,0.07838678359985352,0.039402835071086884,-0.005427762400358915
1761140379599184100,7.58818408203125,0.07982062548398972,0.00803292728960514,-0.021919654682278633
1761140379609244200,7.598244140625,0.07846507430076599,0.003951100166887045,-0.023927144706249237
1761140379619303000,7.608302978515625,0.07428140938282013,0.01912710629403591,-0.02135734260082245
1761140379629362200,7.618362060546875,0.06985283643007278,0.04251046106219292,-0.022521942853927612
1761140379639422000,7.628421875,0.07005780190229416,0.06457258760929108,-0.019636837765574455
1761140379649481000,7.63848095703125,0.06740956008434296,0.07008638978004456,-0.02013431489467621
1761140379659541200,7.648541259765625,0.06689849495887756,0.06761391460895538,-0.012539513409137726
1761140379669600000,7.65860009765625,0.07440274953842163,0.0669766217470169,0.011117879301309586
1761140379679660000,7.668659912109375,0.08281291276216507,0.06450758129358292,0.03803882747888565
1761140379689719000,7.678718994140625,0.08514823764562607,0.04931851103901863,0.07116828858852386
1761140379699778000,7.688778076171875,0.08109774440526962,0.025009356439113617,0.09160486608743668
1761140379709838000,7.698838134765625,0.0714150220155716,0.002437734976410866,0.09596659243106842
1761140379719897000,7.70889697265625,0.06014057621359825,-0.011980310082435608,0.08530501276254654
1761140379729957000,7.71895703125,0.03890000283718109,-0.02468172460794449,0.058039844036102295
1761140379740015900,7.729015869140625,0.0240627434104681,-0.02937905676662922,0.023479649797081947
1761140379750076200,7.739076171875,0.02274288237094879,-0.007035134360194206,-0.008151779882609844
1761140379760135000,7.749135009765625,0.02818443439900875,0.004308219533413649,-0.02169640362262726
1761140379770194200,7.759194091796875,0.03259170055389404,0.00019203731790184975,-0.01466832123696804
1761140379780254000,7.76925390625,0.030134167522192,-0.010809626430273056,0.01021547056734562
1761140379790313000,7.77931298828125,0.019804563373327255,-0.04607600346207619,0.05059964582324028
1761140379800373000,7.789373046875,-0.004406904801726341,-0.09281165897846222,0.09375447779893875
1761140379810432000,7.799431884765625,-0.04088528826832771,-0.14462852478027344,0.13404199481010437
1761140379820492000,7.809491943359375,-0.08489932119846344,-0.1976436972618103,0.16334068775177002
1761140379830550800,7.81955078125,-0.11831027269363403,-0.23144879937171936,0.16991789638996124
1761140379840611000,7.829611083984375,-0.13553336262702942,-0.22637175023555756,0.14299136400222778
1761140379850670000,7.839670166015625,-0.14246156811714172,-0.20040060579776764,0.06652907282114029
1761140379860729000,7.84972900390625,-0.12887299060821533,-0.15787455439567566,-0.0300535187125206
1761140379870789000,7.8597890625,-0.09887061268091202,-0.11051101982593536,-0.11676204949617386
1761140379880848000,7.869847900390625,-0.06692172586917877,-0.06914845108985901,-0.1761796474456787
1761140379890908000,7.879907958984375,-0.03435605764389038,-0.020947633311152458,-0.19713154435157776
1761140379900967200,7.88996728515625,-0.010980971157550812,0.03114411234855652,-0.16496366262435913
1761140379911027000,7.90002685546875,-0.012908300384879112,0.06151772662997246,-0.10669849067926407
1761140379921086000,7.9100859375,-0.02032359689474106,0.0715910866856575,-0.02696380205452442
1761140379931145000,7.92014501953125,-0.019633572548627853,0.07368380576372147,0.05535024777054787
1761140379941205000,7.930205078125,-0.032338712364435196,0.07388646900653839,0.12644492089748383
1761140379951264000,7.940263916015625,-0.04928174242377281,0.06655319035053253,0.18266291916370392
1761140379961324000,7.950323974609375,-0.06971520930528641,0.04566248878836632,0.2035360038280487
1761140379971383000,7.960383056640625,-0.07885171473026276,0.0004329564981162548,0.1942301243543625
1761140379981442800,7.97044287109375,-0.06165407598018646,-0.04266742616891861,0.1787184774875641
1761140379991502000,7.980502197265625,-0.04095092788338661,-0.06855121999979019,0.15490874648094177
1761140380001560800,7.990560791015625,-0.0047154054045677185,-0.0672524943947792,0.13461634516716003
1761140380011621000,8.00062109375,0.02643585577607155,-0.04086615890264511,0.12102250754833221
1761140380021680000,8.01068017578125,0.04586511477828026,-0.003601678181439638,0.1130109578371048
1761140380031740000,8.020739990234375,0.0536079928278923,0.033196017146110535,0.11781396716833115
1761140380041799200,8.030799072265625,0.05870552733540535,0.06539293378591537,0.14497065544128418
1761140380051859000,8.04085888671875,0.054885491728782654,0.0806504487991333,0.18200936913490295
1761140380061918000,8.05091796875,0.04532279074192047,0.044476378709077835,0.21604111790657043
1761140380071978000,8.06097802734375,0.027062028646469116,-0.012392228469252586,0.2263941615819931
1761140380082037000,8.071037109375,0.005929877981543541,-0.05021808296442032,0.20447015762329102
1761140380092096000,8.081095947265625,-0.010132977738976479,-0.049517132341861725,0.1641584187746048
1761140380102156000,8.091156005859375,-0.01938195526599884,-0.006212120410054922,0.11842017620801926
1761140380112215000,8.101215087890624,-0.01272591669112444,0.040754854679107666,0.07219569385051727
1761140380122275000,8.111275146484376,-0.005364769138395786,0.07345177978277206,0.037749141454696655
1761140380132334000,8.121333984375,-0.0015769555466249585,0.08701792359352112,0.015767408534884453
1761140380142394000,8.13139404296875,-0.004288436844944954,0.0784284919500351,0.014979386702179909
1761140380152452900,8.141452880859376,-0.008982790634036064,0.04625030979514122,0.018992770463228226
1761140380162512100,8.15151220703125,-0.009902006946504116,0.03213554620742798,0.027231868356466293
1761140380172572000,8.161572021484375,-0.00962184276431799,0.04491099342703819,0.03401600569486618
1761140380182631000,8.171630859375,-0.0064902110025286674,0.07394175231456757,0.03492370992898941
1761140380192691200,8.181691162109376,0.0052191754803061485,0.10285329073667526,0.01945100910961628
1761140380202750000,8.19175,0.024330008774995804,0.10914745926856995,-0.0034576854668557644
1761140380212810000,8.20181005859375,0.04369198903441429,0.08144712448120117,-0.027416814118623734
1761140380222869000,8.211868896484376,0.05405433848500252,0.020911388099193573,-0.059052154421806335
1761140380232928000,8.221927978515625,0.06225687265396118,-0.0572100467979908,-0.09064869582653046
1761140380242988000,8.231988037109375,0.07311743497848511,-0.12225418537855148,-0.1225830614566803
1761140380253047000,8.242047119140626,0.08885619044303894,-0.14910125732421875,-0.15185706317424774
1761140380263107000,8.252107177734375,0.09844494611024857,-0.1261836141347885,-0.176416277885437
1761140380273165800,8.262165771484375,0.1019376814365387,-0.07235979288816452,-0.19068336486816406
1761140380283226000,8.27222607421875,0.10574847459793091,-0.02779783308506012,-0.1936650574207306
1761140380293284900,8.282284912109375,0.12773846089839935,-0.0015715560875833035,-0.17745386064052582
1761140380303344000,8.29234423828125,0.14397668838500977,-0.018244167789816856,-0.15065838396549225
1761140380313404200,8.302404052734374,0.13915424048900604,-0.041883714497089386,-0.11650892347097397
1761140380323463000,8.312462890625,0.13256487250328064,-0.04686829075217247,-0.0750025287270546
1761140380333523000,8.32252294921875,0.11252353340387344,-0.02610895037651062,-0.049054816365242004
1761140380343582000,8.33258203125,0.10517445206642151,0.01886693388223648,-0.0377364344894886
1761140380353642000,8.34264208984375,0.08652140945196152,0.026970401406288147,-0.03743709623813629
1761140380363701000,8.352700927734375,0.08363477885723114,0.028337497264146805,-0.041140053421258926
1761140380373760000,8.362760009765625,0.08076868951320648,0.014931943267583847,-0.054184749722480774
1761140380383820000,8.372820068359376,0.05922257527709007,0.00645896140486002,-0.07450632750988007
1761140380393879000,8.382879150390625,0.04434296116232872,0.009290168061852455,-0.10042261332273483
1761140380403939000,8.39293896484375,0.029076358303427696,0.01974109187722206,-0.11401407420635223
1761140380413997800,8.402997802734374,0.019436249509453773,0.0491035059094429,-0.10373613238334656
1761140380424057900,8.413057861328125,0.0162804014980793,0.0720389187335968,-0.07732130587100983
1761140380434117000,8.4231171875,0.016268949955701828,0.0855398178100586,-0.049369294196367264
1761140380444176000,8.43317578125,0.02466849610209465,0.0837550163269043,-0.020934147760272026
1761140380454236000,8.44323583984375,0.03142759948968887,0.07462490350008011,-0.001213439623825252
1761140380464295000,8.453294921875,0.024973854422569275,0.05607972294092178,0.0065429420210421085
1761140380474355000,8.46335498046875,0.026639927178621292,0.04619007557630539,-0.0075584957376122475
1761140380484414200,8.473414306640626,0.026324182748794556,0.03884373605251312,-0.030872531235218048
1761140380494474000,8.483473876953125,0.031214812770485878,0.03291900083422661,-0.05340207368135452
1761140380504533000,8.493532958984375,0.03810063749551773,0.03342442214488983,-0.06151685118675232
1761140380514592000,8.503592041015626,0.04562220349907875,0.04595433175563812,-0.05955090373754501
1761140380524652000,8.513652099609375,0.050802648067474365,0.04231320321559906,-0.03765496984124184
1761140380534711000,8.5237109375,0.055322032421827316,0.01842624507844448,-0.013203689828515053
1761140380544771000,8.53377099609375,0.050130512565374374,-0.008057249709963799,0.003848917782306671
1761140380554830000,8.543830078125,0.04294130951166153,-0.03287205100059509,0.0015724475961178541
1761140380564889900,8.553889892578125,0.02329045906662941,-0.042301926761865616,-0.02538827620446682
1761140380574949000,8.56394921875,0.014458352699875832,-0.02764921262860298,-0.06897597014904022
1761140380585009200,8.574009033203126,0.014433958567678928,-0.002961720572784543,-0.1229938492178917
1761140380595068000,8.58406787109375,0.001955184619873762,0.027409235015511513,-0.16915816068649292
1761140380605127200,8.594127197265625,-0.008595705963671207,0.041978493332862854,-0.20549902319908142
1761140380615187000,8.60418701171875,-0.01977086253464222,0.04345681145787239,-0.2220550924539566
1761140380625246000,8.614245849609375,-0.041383299976587296,0.03262295946478844,-0.23025794327259064
1761140380635306200,8.62430615234375,-0.06616773456335068,0.03332257270812988,-0.22152383625507355
1761140380645365000,8.634364990234374,-0.07732318341732025,0.046512942761182785,-0.20538108050823212
1761140380655425000,8.644425048828126,-0.08098476380109787,0.05027918517589569,-0.19807417690753937
1761140380665484000,8.654484130859375,-0.08697565644979477,0.04343700408935547,-0.18905173242092133
1761140380675543000,8.66454296875,-0.0914367139339447,0.03251005336642265,-0.19052712619304657
1761140380685602800,8.674602783203126,-0.09476935863494873,0.018538646399974823,-0.1982378214597702
1761140380695662000,8.684662109375,-0.08285170793533325,0.028650667518377304,-0.21060527861118317
1761140380705722000,8.69472216796875,-0.06740614026784897,0.05105433985590935,-0.22340291738510132
1761140380715780900,8.70478076171875,-0.06305427104234695,0.04891102761030197,-0.22550387680530548
1761140380725841200,8.714841064453125,-0.05869857594370842,0.054135147482156754,-0.21033267676830292
1761140380735900000,8.72489990234375,-0.04367249086499214,0.073444664478302,-0.175042062997818
1761140380745959200,8.734959228515624,-0.021633105352520943,0.08631345629692078,-0.1393398940563202
1761140380756019200,8.745019287109375,-0.0030394461937248707,0.07758814096450806,-0.09623263776302338
1761140380766078200,8.755078125,0.009491557255387306,0.048924654722213745,-0.06887955963611603
1761140380776138000,8.765137939453124,0.005205998662859201,0.013778654858469963,-0.044489797204732895
1761140380786197200,8.775197265625,-0.004264169838279486,-0.019996261224150658,-0.02951277419924736
1761140380796257300,8.78525732421875,-0.0035890587605535984,-0.028473902493715286,-0.0108876908197999
1761140380806316000,8.79531591796875,-0.00007212039781734347,0.00375638110563159,0.014726919122040272
1761140380816375300,8.805375244140626,0.01637343317270279,0.05165466293692589,0.04308958724141121
1761140380826435000,8.81543505859375,0.03583529219031334,0.08613456040620804,0.06644302606582642
1761140380836494000,8.825494140625,0.05611792579293251,0.09446386247873306,0.08840638399124146
1761140380846554400,8.835554443359374,0.06108124926686287,0.07665375620126724,0.10002583265304565
1761140380856613000,8.845613037109375,0.06011585518717766,0.054701849818229675,0.10350631922483444
1761140380866673200,8.855673095703125,0.052798304706811905,0.03483031317591667,0.10202011466026306
1761140380876732200,8.865732177734374,0.045086588710546494,0.02446342445909977,0.08530692011117935
1761140380886791200,8.875791259765625,0.03680659085512161,0.016183217987418175,0.060605764389038086
1761140380896851000,8.885850830078125,0.032546065747737885,0.019007233902812004,0.03573503717780113
1761140380906910200,8.89591015625,0.02473320998251438,0.018346183001995087,0.018774915486574173
1761140380916970200,8.90597021484375,0.01607154682278633,0.013232913799583912,0.012049103155732155
1761140380927029200,8.916029296875,0.01585172861814499,0.015059851109981537,0.019740503281354904
1761140380937089300,8.92608935546875,0.016238952055573463,0.022748131304979324,0.03209410980343819
1761140380947148000,8.93614794921875,0.019165117293596268,0.03253637254238129,0.05379302427172661
1761140380957207300,8.946207275390625,0.02321631647646427,0.04777178540825844,0.07322371006011963
1761140380967267300,8.956267333984375,0.021862728521227837,0.062406692653894424,0.09024199843406677
1761140380977326000,8.966326171875,0.018713274970650673,0.05998215451836586,0.09725464135408401
1761140380987386000,8.97638623046875,0.016490237787365913,0.04286917299032211,0.0984979122877121
1761140380997445000,8.986445068359375,0.007602470461279154,0.02178439311683178,0.08379273116588593
1761140381007505200,8.996505126953124,-0.00030958931893110275,0.0070902397856116295,0.05815647542476654
1761140381017564200,9.006564208984376,-0.002899247221648693,0.005167437717318535,0.027299489825963974
1761140381027623200,9.016623046875,-0.008783085271716118,-0.000619817990809679,-0.0036139406729489565
1761140381037683200,9.02668310546875,-0.017747553065419197,-0.013608320616185665,-0.028570689260959625
1761140381047742200,9.0367421875,-0.025325801223516464,-0.02071758545935154,-0.036449264734983444
1761140381057802200,9.04680224609375,-0.027727972716093063,-0.026403436437249184,-0.03222815319895744
1761140381067861000,9.056861083984375,-0.029277250170707703,-0.028545090928673744,-0.017429493367671967
1761140381077920300,9.066920166015626,-0.028749411925673485,-0.0240723118185997,-0.002338690683245659
1761140381087980300,9.076980224609375,-0.029268663376569748,-0.019468026235699654,0.007130931131541729
1761140381098039000,9.0870390625,-0.02608884871006012,-0.018999308347702026,0.007734669838100672
1761140381108099300,9.097099365234374,-0.01972026191651821,-0.020827367901802063,0.008047886192798615
1761140381118158000,9.107157958984375,-0.01815246045589447,-0.024930501356720924,-0.0026265964843332767
1761140381128218000,9.117218017578125,-0.015628816559910774,-0.029823940247297287,-0.015535718761384487
1761140381138277000,9.127277099609374,-0.017327381297945976,-0.017796572297811508,-0.02863207831978798
1761140381148336000,9.137336181640626,-0.011343054473400116,-0.005957168526947498,-0.02576460875570774
1761140381158396200,9.147396240234375,-0.005871324334293604,-0.008080240339040756,-0.019045986235141754
1761140381168455200,9.157455078125,-0.006815745495259762,-0.022302798926830292,-0.004931185860186815
1761140381178515200,9.16751513671875,-0.010540176182985306,-0.03673340380191803,0.0076376027427613735
1761140381188574000,9.177573974609375,-0.015072086825966835,-0.044944945722818375,0.011783693917095661
1761140381198634200,9.18763427734375,-0.02003595419228077,-0.048197463154792786,0.0036338886711746454
1761140381208693200,9.197693359375,-0.020244373008608818,-0.029618170112371445,-0.009317703545093536
1761140381218752300,9.207752197265625,-0.016960429027676582,-0.005957849323749542,-0.016586801037192345
1761140381228812300,9.217812255859375,-0.014554817229509354,0.011825241148471832,-0.030931489542126656
1761140381238871000,9.22787109375,-0.004944799933582544,0.013806633651256561,-0.03234722465276718
1761140381248931000,9.23793115234375,-0.0062730140052735806,-0.0028139532078057528,-0.022209610790014267
1761140381258990300,9.247990234375,-0.009035777300596237,-0.03491223603487015,-0.00525912269949913
1761140381269050000,9.258050048828125,-0.00974054541438818,-0.06370186805725098,0.00904634315520525
1761140381279109000,9.268109130859376,-0.009994610212743282,-0.08076047897338867,0.008256982080638409
1761140381289168100,9.278168212890625,-0.011763525195419788,-0.08648312836885452,-0.0013715317472815514
1761140381299228200,9.288228271484375,-0.022198855876922607,-0.08430226147174835,-0.03465065732598305
1761140381309287200,9.298287109375,-0.03872215002775192,-0.06286471337080002,-0.07972322404384613
1761140381319347200,9.30834716796875,-0.050416093319654465,-0.04264120012521744,-0.11342392861843109
1761140381329406200,9.31840625,-0.06139323487877846,-0.03366357833147049,-0.12256434559822083
1761140381339466000,9.328466064453124,-0.057280249893665314,-0.03770811855792999,-0.10358799248933792
1761140381349525200,9.338525146484375,-0.048691969364881516,-0.03717980533838272,-0.07297283411026001
1761140381359584000,9.348583984375,-0.04536594823002815,-0.05383361876010895,-0.036361824721097946
1761140381369644300,9.358644287109374,-0.04437809810042381,-0.04170200601220131,0.002160325413569808
1761140381379703300,9.368703369140626,-0.0511622317135334,-0.025439679622650146,0.02598070353269577
1761140381389763000,9.37876318359375,-0.058326300233602524,-0.02230381965637207,0.02502097375690937
1761140381399822300,9.388822265625,-0.061278145760297775,-0.01677190139889717,0.011733131483197212
1761140381409882000,9.398882080078126,-0.07353091984987259,-0.007504888344556093,-0.007811082527041435
1761140381419941000,9.408941162109375,-0.07936670631170273,0.0040742699056863785,-0.023615079000592232
1761140381430000000,9.419000244140625,-0.08187001943588257,0.009167510084807873,-0.03682467341423035
1761140381440060200,9.42906005859375,-0.08485542237758636,0.011569681577384472,-0.03496897965669632
1761140381450119200,9.439119140625,-0.07043802738189697,0.00517116067931056,-0.012232169508934021
1761140381460179200,9.44917919921875,-0.06131802871823311,-0.01624464802443981,0.021543636918067932
1761140381470238200,9.45923828125,-0.05490445718169212,-0.027208557352423668,0.05090446397662163
1761140381480297200,9.469297119140625,-0.05956179276108742,-0.023453500121831894,0.06597822904586792
1761140381490357200,9.479357177734375,-0.0650896281003952,-0.005149480886757374,0.06897193938493729
1761140381500416300,9.489416259765624,-0.07139413058757782,0.010492595843970776,0.055248938500881195
1761140381510476000,9.49947607421875,-0.06709516048431396,0.020652061328291893,0.03774040564894676
1761140381520535300,9.509535400390625,-0.05591840296983719,0.020925035700201988,0.024748440831899643
1761140381530595000,9.519594970703125,-0.04746484011411667,0.0033673574216663837,0.01918928325176239
1761140381540654000,9.529654052734376,-0.045207276940345764,-0.012927193194627762,0.01823134534060955
1761140381550713000,9.539713134765625,-0.047460440546274185,-0.028752919286489487,0.026121318340301514
1761140381560773000,9.549773193359375,-0.052630435675382614,-0.03322676569223404,0.029788492247462273
1761140381570832100,9.55983203125,-0.06281856447458267,-0.035068660974502563,0.028354864567518234
1761140381580892200,9.56989208984375,-0.07114733010530472,-0.03563831001520157,0.020008785650134087
1761140381590951200,9.579951171875,-0.07066991925239563,-0.03261595219373703,0.007321779150515795
1761140381601011200,9.59001123046875,-0.059565335512161255,-0.027520261704921722,-0.005453404504805803
1761140381611070200,9.6000703125,-0.041574884206056595,-0.019406650215387344,-0.010539421811699867
1761140381621129200,9.610129150390625,-0.02855735644698143,-0.013092296198010445,-0.01578771509230137
1761140381631189000,9.62018896484375,-0.02674577571451664,-0.016540516167879105,-0.01741155795753002
1761140381641248300,9.630248291015626,-0.03268862143158913,-0.028885066509246826,-0.019648347049951553
1761140381651308000,9.64030810546875,-0.040299445390701294,-0.04371519014239311,-0.03212830424308777
1761140381661367300,9.6503671875,-0.04708331823348999,-0.05783926695585251,-0.04970250278711319
1761140381671427300,9.66042724609375,-0.043973445892333984,-0.04389675334095955,-0.06381328403949738
1761140381681486000,9.670486083984375,-0.03576105460524559,-0.03396769240498543,-0.06981179118156433
1761140381691545300,9.68054541015625,-0.026894306764006615,-0.01930285058915615,-0.0661909431219101
1761140381701605000,9.690605224609374,-0.01567520759999752,-0.006180656608194113,-0.04430881142616272
1761140381711664000,9.7006640625,-0.001395104336552322,0.0026827570982277393,-0.011493894271552563
1761140381721724200,9.71072412109375,0.009519594721496105,0.0019117719493806362,0.028885751962661743
1761140381731783200,9.720783203125,0.013491188175976276,-0.008507678285241127,0.06045469641685486
1761140381741843200,9.73084326171875,0.0054796007461845875,-0.022926831617951393,0.06747639179229736
1761140381751902200,9.740902099609375,-0.0036887996830046177,-0.03467089310288429,0.05374827980995178
1761140381761961200,9.750961181640625,-0.017300749197602272,-0.036114323884248734,0.033007584512233734
1761140381772021000,9.76102099609375,-0.02753804624080658,-0.02374127134680748,0.017319094389677048
1761140381782080300,9.771080322265625,-0.026259995996952057,-0.01615898497402668,0.010043338872492313
1761140381792140300,9.781140380859375,-0.020901907235383987,-0.015664804726839066,0.005521696992218494
1761140381802199000,9.791198974609374,-0.011445288546383381,-0.01580621860921383,0.011712213978171349
1761140381812258300,9.80125830078125,-0.008871215395629406,-0.014447849243879318,0.022884614765644073
1761140381822318000,9.811318115234375,-0.014222304336726665,-0.013934125192463398,0.03659643232822418
1761140381832377000,9.821377197265624,-0.02263791672885418,-0.002811599522829056,0.05249646678566933
1761140381842437400,9.831437255859376,-0.02775837481021881,-0.0018081206362694502,0.062045495957136154
1761140381852496100,9.84149609375,-0.0285459253937006,-0.005186868831515312,0.0716424286365509
1761140381862556200,9.85155615234375,-0.028023412451148033,-0.012055160477757454,0.07704544812440872
1761140381872615200,9.861615234375,-0.01765725016593933,-0.022124409675598145,0.07422316819429398
1761140381882674200,9.871674072265625,-0.012186051346361637,-0.03311101347208023,0.0566236712038517
1761140381892734200,9.881734130859375,-0.008839971385896206,-0.035325609147548676,0.034075185656547546
1761140381902793200,9.891793212890626,-0.01529813650995493,-0.0357075072824955,-0.0015760166570544243
1761140381912853200,9.901853271484375,-0.01401341799646616,-0.019693437963724136,-0.0383857786655426
1761140381922912000,9.911912109375,-0.0035080458037555218,0.010357139632105827,-0.05947135388851166
1761140381932972300,9.92197216796875,0.007884850725531578,0.03282490745186806,-0.06748781353235245
1761140381943031000,9.932031005859375,0.02299962192773819,0.05083480104804039,-0.0480818897485733
1761140381953090300,9.94209033203125,0.03731290623545647,0.05855759233236313,-0.01736454851925373
1761140381963150300,9.952150390625,0.04388399049639702,0.04823624715209007,0.021982058882713318
1761140381973209000,9.962208984375,0.04335514083504677,0.038955654948949814,0.06277373433113098
1761140381983269000,9.97226904296875,0.038937222212553024,0.015850337222218513,0.0945202112197876
1761140381993328000,9.982328125,0.032777950167655945,-0.03215409070253372,0.1170886904001236
1761140382003387100,9.99238720703125,0.032304175198078156,-0.05929356813430786,0.12329598516225815
1761140382013447200,10.002447265625,0.03335273638367653,-0.09018607437610626,0.10470859706401825
1761140382023506200,10.012506103515625,0.03744228556752205,-0.10971184074878693,0.053058985620737076
1761140382033566200,10.022566162109374,0.052903734147548676,-0.09968551248311996,-0.0063220057636499405
1761140382043625200,10.032625244140625,0.06031211465597153,-0.05520593374967575,-0.06133359298110008
1761140382053685200,10.042685302734375,0.05408468842506409,0.0028517688624560833,-0.08874677121639252
1761140382063744000,10.052743896484374,0.0431569367647171,0.0399666503071785,-0.08678082376718521
1761140382073803300,10.06280322265625,0.03607788309454918,0.042907584458589554,-0.060683779418468475
1761140382083863300,10.07286328125,0.01671617105603218,0.011072690598666668,-0.024889830499887466
1761140382093922000,10.082922119140624,-0.004862976726144552,-0.03200378641486168,0.02048717997968197
1761140382103982300,10.092982421875,-0.007831069640815258,-0.06984357535839081,0.05182619392871857
1761140382114041000,10.103041015625,0.0021774941124022007,-0.07817410677671432,0.07743843644857407
1761140382124101000,10.11310107421875,0.0014597722329199314,-0.07314818352460861,0.06322195380926132
1761140382134160400,10.123160400390624,-0.012835746631026268,-0.053870413452386856,0.03563874959945679
1761140382144219100,10.13321923828125,-0.02777155116200447,-0.016246341168880463,0.012590155005455017
1761140382154279200,10.143279052734375,-0.027351880446076393,-0.0020567968022078276,-0.007603379897773266
1761140382164338200,10.153338134765624,-0.023031434044241905,0.0012551103718578815,-0.021394824609160423
1761140382174398200,10.163398193359376,-0.024109993129968643,-0.015545830130577087,-0.024088332429528236
1761140382184457000,10.17345703125,-0.03835071250796318,-0.027089301496744156,-0.012482009828090668
1761140382194516200,10.18351611328125,-0.04894218221306801,-0.028088392689824104,0.005020768381655216
1761140382204576300,10.193576171875,-0.05709172040224075,-0.003224322572350502,0.02666747383773327
1761140382214635000,10.203635009765625,-0.053448546677827835,0.0343298614025116,0.04982469975948334
1761140382224695300,10.2136953125,-0.03976495936512947,0.0478304885327816,0.05821099504828453
1761140382234754000,10.223754150390626,-0.03134790062904358,0.03580322861671448,0.059963978826999664
1761140382244814000,10.23381396484375,-0.025535019114613533,0.018701739609241486,0.056116245687007904
1761140382254873300,10.243873291015625,-0.029987813904881477,0.003293439280241728,0.040456511080265045
1761140382264932000,10.25393212890625,-0.04588741809129715,0.0003684898838400841,0.023667944595217705
1761140382274992000,10.2639921875,-0.05431440472602844,0.017237212508916855,0.005751828663051128
1761140382285051100,10.274051025390625,-0.06581393629312515,0.028838740661740303,-0.0075693028047680855
1761140382295111200,10.284111083984374,-0.06685005873441696,0.038450345396995544,-0.012087283656001091
1761140382305170200,10.294170166015626,-0.06106248497962952,0.04504699632525444,0.0024535758420825005
1761140382315229200,10.304229248046875,-0.0535048171877861,0.023128176108002663,0.011573581025004387
1761140382325289200,10.314289306640624,-0.05320388078689575,0.010104784741997719,0.020711151883006096
1761140382335348200,10.32434814453125,-0.06442040205001831,0.018828388303518295,0.013093390502035618
1761140382345408300,10.334408203125,-0.07284637540578842,0.012918300926685333,-0.0011646408820524812
1761140382355467000,10.344467041015625,-0.07363920658826828,-0.009715299122035503,-0.042194727808237076
1761140382365527000,10.354527099609374,-0.060483191162347794,-0.036769818514585495,-0.09161127358675003
1761140382375586300,10.36458642578125,-0.04592712223529816,-0.02621828019618988,-0.13509412109851837
1761140382385645000,10.37464501953125,-0.04094408079981804,0.0014892471954226494,-0.16097044944763184
1761140382395705300,10.384705322265624,-0.04375284165143967,0.03009122796356678,-0.15121594071388245
1761140382405764000,10.39476416015625,-0.052293598651885986,0.03136688098311424,-0.12445598095655441
1761140382415824100,10.40482421875,-0.06123294681310654,-0.004063967149704695,-0.07749240100383759
1761140382425883100,10.414883056640624,-0.07041685283184052,-0.05197370424866676,-0.03379125893115997
1761140382435942100,10.424942138671875,-0.07657943665981293,-0.07150522619485855,-0.005179960746318102
1761140382446002200,10.435002197265625,-0.07772006094455719,-0.06998801976442337,-0.0025399692822247744
1761140382456061200,10.445061279296874,-0.07529199868440628,-0.04270452260971069,-0.030257662758231163
1761140382466121200,10.455121337890626,-0.06501512229442596,0.002351100090891123,-0.06465718150138855
1761140382476180000,10.465179931640625,-0.055409763008356094,0.03735100477933884,-0.09620729833841324
1761140382486240300,10.475240234375,-0.042416997253894806,0.04417189210653305,-0.11014761030673981
1761140382496299300,10.48529931640625,-0.02390902116894722,0.02658054232597351,-0.09737441688776016
1761140382506358300,10.495358154296875,-0.017978159710764885,0.002280797343701124,-0.07687447220087051
1761140382516418300,10.505418212890625,-0.015598893165588379,-0.0030481878202408552,-0.05303225293755531
1761140382526477000,10.51547705078125,-0.02303912490606308,0.014367543160915375,-0.04036618769168854
1761140382536537000,10.525537109375,-0.04728256165981293,0.040335457772016525,-0.04441437870264053
1761140382546596400,10.535596435546875,-0.08609414100646973,0.05552293360233307,-0.06092491373419762
1761140382556655000,10.545655029296874,-0.11526194959878922,0.06157160550355911,-0.0821954533457756
1761140382566715100,10.555715087890626,-0.1290917545557022,0.056177109479904175,-0.0961027517914772
1761140382576774100,10.565774169921875,-0.11565669625997543,0.05086575821042061,-0.0880437046289444
1761140382586834200,10.575834228515625,-0.0792829766869545,0.047464367002248764,-0.04855648800730705
1761140382596893200,10.58589306640625,-0.04483525827527046,0.05338697135448456,0.0018819199176505208
1761140382606953200,10.595953125,-0.016580181196331978,0.03728922829031944,0.039940621703863144
1761140382617012200,10.60601220703125,0.005375172942876816,0.01904955320060253,0.05598784610629082
1761140382627071200,10.6160712890625,0.009870855137705803,0.0057851471938192844,0.04059397429227829
1761140382637131300,10.62613134765625,-0.001579661387950182,0.013113584369421005,0.004503269679844379
1761140382647190000,10.63618994140625,-0.01869073696434498,0.03352271765470505,-0.03612351790070534
1761140382657250000,10.64625,-0.03023969568312168,0.062201760709285736,-0.06173267215490341
1761140382667309300,10.656309326171876,-0.03386079519987106,0.0973789244890213,-0.060315605252981186
1761140382677368000,10.6663681640625,-0.02208160236477852,0.10130134224891663,-0.047190725803375244
1761140382687428400,10.676428466796875,0.0027174875140190125,0.10049466788768768,-0.008989810012280941
1761140382697487000,10.686487060546876,0.03481720760464668,0.11125143617391586,0.03810640051960945
1761140382707547100,10.696547119140625,0.057948626577854156,0.08292178809642792,0.07301325350999832
1761140382717606100,10.706606201171875,0.07187638431787491,0.029685424640774727,0.10202401131391525
1761140382727666200,10.716666259765624,0.06824170053005219,-0.013081747107207775,0.12930624186992645
1761140382737725200,10.72672509765625,0.06672301888465881,-0.01672394387423992,0.13810716569423676
1761140382747784200,10.7367841796875,0.07021494954824448,0.004955784883350134,0.11884824931621552
1761140382757844200,10.74684423828125,0.07704610377550125,0.03738680109381676,0.08417052775621414
1761140382767903000,10.756903076171875,0.07250141352415085,0.07354161143302917,0.04362044110894203
1761140382777963000,10.766962890625,0.06497626006603241,0.08640212565660477,0.007255333475768566
1761140382788022000,10.77702197265625,0.05927549675107002,0.0962478294968605,-0.008863449096679688
1761140382798081000,10.7870810546875,0.07112248241901398,0.10391868650913239,-0.0022729819174855947
1761140382808141000,10.79714111328125,0.08596508204936981,0.11965557187795639,0.03329486772418022
1761140382818199800,10.80719970703125,0.09301234036684036,0.12291815876960754,0.08813273906707764
1761140382828259800,10.817259765625,0.06874056160449982,0.12045739591121674,0.13043305277824402
1761140382838318800,10.82731884765625,0.04108865559101105,0.18612106144428253,0.20419903099536896
1761140382848379000,10.83737890625,0.013370206579566002,0.17469608783721924,0.27707430720329285
1761140382858438000,10.84743798828125,0.0403054840862751,0.07096858322620392,0.2621743977069855
1761140382868497000,10.857496826171875,0.09700071811676025,0.017756754532456398,0.21147261559963226
1761140382878557000,10.867556884765625,0.13095301389694214,-0.040132805705070496,0.14380714297294617
1761140382888616000,10.877615966796874,0.12913380563259125,-0.037350334227085114,0.0819520354270935
1761140382898676000,10.887676025390626,0.10306917876005173,-0.006862150505185127,0.03615586459636688
1761140382908735000,10.89773486328125,0.09725762903690338,0.04081801697611809,0.0275272224098444
1761140382918794000,10.9077939453125,0.12609347701072693,0.08695142716169357,0.05932826176285744
1761140382928854000,10.91785400390625,0.1547730714082718,0.08512769639492035,0.08836603909730911
1761140382938912800,10.927912841796875,0.1635376662015915,0.05103966221213341,0.07202000170946121
1761140382948973000,10.93797314453125,0.15418677031993866,0.01970277726650238,0.009509745985269547
1761140382959031800,10.94803173828125,0.13365256786346436,0.02509540319442749,-0.07489322125911713
1761140382969091800,10.958091796875,0.0982772707939148,0.03634779155254364,-0.1399899274110794
1761140382979151000,10.968151123046875,0.06281790882349014,0.03163778781890869,-0.17251034080982208
1761140382989209900,10.9782099609375,0.057418081909418106,0.037271708250045776,-0.16599464416503906
1761140382999270000,10.988269775390625,0.06605658680200577,0.030532527714967728,-0.12531441450119019
1761140383009329000,10.998328857421875,0.06955225020647049,0.03012453019618988,-0.07094225287437439
1761140383019389000,11.008388916015624,0.06385009735822678,0.025732234120368958,-0.024942757561802864
1761140383029448000,11.018447998046875,0.043783705681562424,0.014308069832623005,0.013594781048595905
1761140383039507000,11.0285068359375,0.02470974251627922,0.010169941931962967,0.041081175208091736
1761140383049567000,11.03856689453125,0.006094780284911394,0.009488971903920174,0.04964350163936615
1761140383059626000,11.0486259765625,-0.012266267091035843,0.006388993468135595,0.05082779750227928
1761140383069686000,11.05868603515625,-0.018123090267181396,0.021214013919234276,0.04192351922392845
1761140383079744800,11.068744873046874,-0.019682595506310463,0.03361107409000397,0.04104159399867058
1761140383089804800,11.0788046875,-0.013084879145026207,0.054949384182691574,0.0492505244910717
1761140383099864000,11.088864013671875,-0.0007073057349771261,0.06295007467269897,0.07007840275764465
1761140383109922800,11.0989228515625,0.013084406033158302,0.04407412186264992,0.09722533822059631
1761140383119982800,11.10898291015625,0.010962048545479774,0.024288319051265717,0.12110690772533417
1761140383130041900,11.119041748046875,-0.0024011614732444286,0.025897137820720673,0.1439158171415329
1761140383140102000,11.129101806640625,-0.013559476472437382,0.042019326239824295,0.15403258800506592
1761140383150161200,11.1391611328125,-0.02157532423734665,0.06405485421419144,0.14029547572135925
1761140383160220000,11.149219970703125,-0.022665761411190033,0.07776656746864319,0.12086282670497894
1761140383170280000,11.159280029296875,-0.019251056015491486,0.08545085042715073,0.11086530983448029
1761140383180339000,11.1693388671875,-0.018238553777337074,0.07211228460073471,0.09917907416820526
1761140383190399000,11.17939892578125,-0.014804674312472343,0.05365205556154251,0.09165431559085846
1761140383200457700,11.189457763671875,-0.012988152913749218,0.02724214270710945,0.07599358260631561
1761140383210517000,11.19951708984375,-0.013814532198011875,0.003033207729458809,0.06502322852611542
1761140383220577000,11.209576904296876,-0.019097955897450447,-0.011300846002995968,0.055704567581415176
1761140383230635800,11.2196357421875,-0.017400724813342094,-0.01435416005551815,0.05910249426960945
1761140383240696000,11.229696044921875,-0.014107512310147285,-0.002664476167410612,0.061620213091373444
1761140383250754800,11.2397548828125,-0.010413708165287971,0.022089073434472084,0.06829889118671417
1761140383260813800,11.249813720703125,-0.0049741799011826515,0.04619937017560005,0.060702063143253326
1761140383270874000,11.2598740234375,-0.004084151238203049,0.05412440747022629,0.06260915100574493
1761140383280932900,11.269932861328124,-0.0026195086538791656,0.05547962710261345,0.050027333199977875
1761140383290993000,11.279992919921876,0.0006886699120514095,0.04589837044477463,0.042865559458732605
1761140383301052000,11.290052001953125,0.0012719875667244196,0.02489493042230606,0.029289621859788895
1761140383311112000,11.30011181640625,0.0007723785238340497,0.021718578413128853,0.018299821764230728
1761140383321170700,11.310170654296876,0.00009806611342355609,0.018858876079320908,0.008504715748131275
1761140383331230000,11.32022998046875,-0.015267574228346348,0.02981698326766491,0.01485422346740961
1761140383341290000,11.3302900390625,-0.03812341019511223,0.03333715349435806,0.018488340079784393
1761140383351349000,11.340348876953126,-0.043629761785268784,0.014029770158231258,0.007627436425536871
1761140383361409000,11.350408935546875,-0.033380404114723206,-0.009927074424922466,-0.001303533324971795
1761140383371467800,11.3604677734375,-0.04880170524120331,0.03213915228843689,0.09960976243019104
1761140383381527000,11.370527099609374,-0.05239875987172127,-0.13106851279735565,0.13900844752788544
1761140383391587000,11.380587158203125,-0.01210140623152256,-0.14050543308258057,0.15514187514781952
1761140383401645800,11.390645751953125,0.01799585111439228,-0.08883567899465561,0.13139992952346802
1761140383411705900,11.400705810546874,0.009432989172637463,-0.022789284586906433,0.09031481295824051
1761140383421764900,11.410764892578126,-0.02141689881682396,0.039135806262493134,0.03277058154344559
1761140383431824000,11.420823974609375,-0.03936341032385826,0.04381125047802925,-0.013149505481123924
1761140383441884200,11.43088427734375,-0.038561634719371796,0.03383159637451172,-0.04277883842587471
1761140383451943000,11.44094287109375,-0.03207870200276375,0.017373260110616684,-0.06335309147834778
1761140383462003000,11.4510029296875,-0.010593577288091183,0.022495746612548828,-0.0843578353524208
1761140383472062000,11.46106201171875,-0.005540229380130768,0.03238273411989212,-0.10152377188205719
1761140383482122000,11.4711220703125,-0.02578088268637657,0.04072662070393562,-0.0839170590043068
1761140383492180700,11.4811806640625,-0.03565108776092529,0.04605693742632866,-0.03753092139959335
1761140383502240000,11.491239990234375,-0.02329094335436821,0.015496156178414822,0.0055909971706569195
