time,seconds_elapsed,z,y,x
1761140347705679000,0.05767919921875,-0.47137774106562136,-0.3623749300330877,-0.32164237601980566
1761140347715738000,0.067738037109375,-0.7172510287433862,-0.2092944923430681,0.053301893533393735
1761140347725798100,0.077798095703125,-0.7379524559885263,0.00493131892234087,0.32441425188593564
1761140347735857400,0.087857421875,-0.6399176136940717,0.19174656069278717,0.44189051142707464
1761140347745917400,0.09791748046875,-0.3915408187627792,0.21136574565917252,0.503253838602081
1761140347755977500,0.1079775390625,-0.0927308906674385,0.11510843443125486,0.4783690612576902
1761140347766036200,0.1180361328125,0.18800328251123427,0.0003618190497159958,0.28746735389120875
1761140347776096300,0.12809619140625,0.33362638993263244,-0.11077917305529117,0.1087332733761519
1761140347786156300,0.13815625,0.2984855184465647,-0.2260655944019556,-0.040164325671270484
1761140347796215300,0.14821533203125,0.16221476126015186,-0.2744143225073814,-0.15064992260746657
1761140347806275300,0.158275390625,0.16174539018273354,-0.15040654230564832,-0.13647424386925994
1761140347816335400,0.16833544921875,0.09995441218018532,0.006261106221377849,0.013575813148915768
1761140347826394400,0.178394287109375,0.03331540962457657,0.14525690445750952,0.1940050802092999
1761140347836454400,0.188454345703125,-0.0012678279787302017,0.1991580059930682,0.22050452620871364
1761140347846514400,0.198514404296875,-0.14105799146294593,0.14471709849238396,0.23594511031620202
1761140347856573400,0.208573486328125,-0.3071481328517198,0.15935381887108085,0.031598303508386015
1761140347866633500,0.218633544921875,-0.3191273244589567,0.02810907315313816,-0.18111724932454526
1761140347876693500,0.228693603515625,-0.13758125526309012,-0.16061960102319717,-0.2635324246175587
1761140347886752300,0.238752197265625,0.16906068163216112,-0.20946634177863596,-0.4723704053647816
1761140347896812500,0.2488125,0.5327905334055424,-0.17126432915627957,-0.6433383819229901
1761140347906872300,0.258872314453125,1.0068564906418322,0.35717648460716006,-0.5592591458752751
1761140347916931300,0.268931396484375,1.3899626585364342,1.218691899639368,0.0013528759136795998
1761140347926991400,0.278991455078125,0.8753677070349455,1.098610060709715,-0.5066692730687559
1761140347937051400,0.289051513671875,0.08493687579035758,1.0481219824880361,-0.9099300479806959
1761140347947110400,0.2991103515625,-0.1962327661961317,0.6169798056989908,-0.6924085561707616
1761140347957170400,0.30917041015625,-0.4830564884215593,0.36952567857056856,-0.8565678756274282
1761140347967230200,0.319230224609375,-0.5462140786021947,0.4420037625432014,-1.2997230001628397
1761140347977289500,0.32928955078125,-0.40348844618797297,0.3742053608193993,-1.290526132750511
1761140347987349200,0.339349365234375,-0.3047130146592855,0.024041969844698904,-1.1570010210104287
1761140347997409300,0.3494091796875,0.3022667905509472,-0.35070144337415693,-1.1064039294563233
1761140348007468500,0.359468505859375,1.1400286972910165,-0.6479711562901735,-0.8649735926620662
1761140348017528300,0.3695283203125,2.124685631084442,-0.3675947105079889,-0.671559683278948
1761140348027588400,0.37958837890625,3.1579882301032542,0.6557033579774201,0.1327097037039697
1761140348037647400,0.3896474609375,2.211325219139457,0.22288111914694309,0.5864402905285359
1761140348047707400,0.399707275390625,0.13572364469766615,-0.5056297008879482,0.5026859025210142
1761140348057767400,0.409767333984375,-1.403109140357375,-0.48099166484624145,0.37671062163859603
1761140348067826200,0.419826171875,-1.6391899328172206,0.9494953117802739,0.5893881805486977
1761140348077886500,0.429886474609375,-0.9449211357325314,1.0211655865013598,-0.5109926892258226
1761140348087946500,0.439946533203125,-0.4410463156878948,0.270901345950365,-1.3071598721653221
1761140348098005200,0.450005126953125,0.5917705456405877,-0.32204218899235126,-0.9893900997951626
1761140348108065300,0.460065185546875,0.7400596574008464,-0.35624271088838577,-0.4961316585719585
1761140348118125300,0.470125244140625,0.31354806302189825,-0.22261486942619085,-0.16577040791511535
1761140348128184300,0.480184326171875,-0.369485638821125,-0.3711233960907906,0.3463037929370999
1761140348138244400,0.490244384765625,-1.2220067232757805,-0.5427970367003232,0.6868430309981107
1761140348148304400,0.500304443359375,-1.3312322371482848,-0.6051328621692955,0.8940142475768923
1761140348158363400,0.51036328125,-1.1678092691421509,-0.5246791962075978,1.2019557227633892
1761140348168423400,0.52042333984375,-2.242663775733113,-0.05133417365700006,0.876757992349565
1761140348178483500,0.5304833984375,-2.876310638594627,0.3198422677952796,0.04129091854840517
1761140348188542500,0.54054248046875,-1.694477520275116,0.24372955364733934,-0.6894044059187173
1761140348198602500,0.5506025390625,-0.05650923820734024,0.1787560731511563,-0.7625687185898423
1761140348208662300,0.560662353515625,0.9529793545037507,0.2433046792987734,-0.34435441243499515
1761140348218721300,0.57072119140625,1.9099352114230392,0.16073161003030836,0.29556773130372166
1761140348228781600,0.580781494140625,2.391342179071903,-0.14103702174015342,1.3177785890743137
1761140348238841300,0.59084130859375,1.5574468846321106,-0.5000410871006548,2.2209034870848057
1761140348248900400,0.600900390625,0.17483868051171303,-0.6258902573853731,2.317763294250518
1761140348258960400,0.61096044921875,-0.9083300654381513,-0.8627136118408292,1.796793400889635
1761140348269020400,0.6210205078125,-1.4555799168288708,-1.2158313956417142,1.1420953474972397
1761140348279079400,0.631079345703125,-1.4079957433551549,-0.44977826900221407,0.10428827666603029
1761140348289139200,0.64113916015625,-0.8327537231892347,0.6779962921977043,-0.9224383049633353
1761140348299199200,0.65119921875,-0.8041343624264001,0.28013927602544425,-0.2741124900165945
1761140348309258500,0.661258544921875,-0.6233885036975145,0.05650047037899494,-0.27267536988556385
1761140348319318300,0.671318359375,-0.7345294958025217,0.304963043897599,-0.8474147742915898
1761140348329378300,0.68137841796875,-0.9074842622637748,0.5429622371993958,-1.8513079581484198
1761140348339437600,0.6914375,-0.48310617278218265,1.0227968409650028,-4.55412899275273
1761140348349497300,0.701497314453125,0.30602234369218345,1.1372804214961827,-4.27261594415605
1761140348359557400,0.711557373046875,0.3694809626460075,1.0930949505500496,-1.9606246574357151
1761140348369616400,0.721616455078125,0.4868097034752369,0.888133518975228,-1.4041010740041733
1761140348379676400,0.731676513671875,0.4919546651482582,-0.31574630371853707,5.794263785654306
1761140348389736400,0.741736328125,-0.28157530017793175,-1.3832200524084268,10.577924295353888
1761140348399795200,0.751795166015625,0.7278302904248237,1.706708056294918,-0.23920984773319212
1761140348409855500,0.76185546875,1.5727438224852084,0.8445834233231843,-1.8126354054048657
1761140348419915500,0.77191552734375,1.485163738709688,-0.9802075531691312,-0.8387811667852103
1761140348429974300,0.781974365234375,1.1642471927464009,-1.3395020528435706,-0.9196192289546131
1761140348440034300,0.792034423828125,1.107595331197977,-0.8895217584632337,-0.5576875857096165
1761140348450094300,0.80209423828125,1.3882628688812255,-0.3581413841165602,0.14849237924739717
1761140348460153300,0.8121533203125,1.6833587448894975,-0.19963336841985582,1.1125833487436174
1761140348470213400,0.82221337890625,1.7530857765883205,-0.2047093565098941,1.7586457488030194
1761140348480273400,0.8322734375,1.735792696481943,-0.264888661532104,2.019519621735811
1761140348490332400,0.84233251953125,1.2980974447876215,-0.8026692583099008,1.74104842505306
1761140348500392400,0.852392333984375,0.9508885197043419,-0.9214736246496439,0.7246917732033878
1761140348510452200,0.8624521484375,1.4907055907458067,-0.21710268187597392,0.6645829030688851
1761140348520511500,0.872511474609375,2.086672419032454,0.3663528937533498,1.1967163608051836
1761140348530571500,0.882571533203125,4.549585211843252,0.4179778670504689,1.581813848647475
1761140348540631300,0.89263134765625,6.197021579480171,0.3287466550670564,1.6981059399053453
1761140348550690300,0.902690185546875,5.905941953375935,0.13010478190258146,1.6721598900049923
1761140348560750600,0.91275048828125,5.473990798291564,-0.08698883988410235,2.3277621256954966
1761140348570810400,0.922810302734375,3.9668274092197415,-0.12880538974180816,2.7776234698712825
1761140348580869400,0.932869384765625,4.476345203587413,-0.027712913442403075,2.6559932324558493
1761140348590929200,0.94292919921875,6.138410985079408,0.2759333487682044,2.3069202670663596
1761140348600989400,0.952989501953125,6.969380747461319,0.4878551208749413,2.118540552458167
1761140348611048400,0.96304833984375,6.974165643650293,0.40345505537502463,1.9368679342731832
1761140348621108200,0.973108154296875,6.5024442037135355,0.13948460466638207,1.5930220558822155
1761140348631167500,0.98316748046875,6.449570107138157,0.009409560314938425,1.286551968422532
1761140348641227500,0.9932275390625,6.962165993776917,0.06843297330029309,0.49395197644531724
1761140348651287300,1.003287353515625,6.530738570305704,-0.051059302238374946,-0.5395423457533121
1761140348661346600,1.0133466796875,6.62591802316904,0.2655589620091021,-1.0778548574507236
1761140348671406300,1.02340625,7.257012278938293,1.1194552803397178,-0.3200628517434001
1761140348681466400,1.03346630859375,7.537326765400171,1.7475810416921973,1.3037240524977445
1761140348691525400,1.043525390625,7.241606620013713,2.2785180561855434,2.327423249129951
1761140348701585400,1.05358544921875,4.94325427480638,2.844665792530775,2.2360122088894245
1761140348711645400,1.0636455078125,3.063803633496165,2.8916218972340224,0.7559791110664605
1761140348721704400,1.073704345703125,2.11557001221478,3.254532541579008,1.1756412779420613
1761140348731764200,1.08376416015625,1.7691005073219537,3.9044343736708162,1.7810855441480875
1761140348741824500,1.093824462890625,1.5223030905365944,4.56981346861869,1.9849550888329743
1761140348751883300,1.10388330078125,1.8259400003969668,4.969249132284522,2.26372585298419
1761140348761943300,1.113943359375,2.750434434172511,4.989540225163102,1.8494348577529192
1761140348772003300,1.12400341796875,4.107502538844943,5.306112604442238,1.7296821046471595
1761140348782062300,1.134062255859375,4.889468324083089,5.796386184635758,1.5695990947186946
1761140348792122400,1.144122314453125,4.292351448978484,5.521128981563448,0.19775076954364776
1761140348802182400,1.154182373046875,3.537190376296639,5.048070740064978,-1.1432564271658658
1761140348812241400,1.164241455078125,3.504814293348789,4.577588486534357,-2.421182021540403
1761140348822301400,1.174301513671875,4.659786000488698,4.321050304718315,-3.890453194591403
1761140348832361500,1.184361572265625,7.052578670629859,5.245128851169348,-4.629872216001153
1761140348842420200,1.194420166015625,6.032521337631344,7.234815644699335,-6.773146227699518
1761140348852480500,1.20448046875,2.172357190580666,7.63490509609878,-7.410660287383198
1761140348862540500,1.21454052734375,-0.9279197320491075,7.163456043362617,-6.987102282112836
1761140348872599300,1.224599365234375,-2.7639932961866256,7.161935117405653,-7.65528912795782
1761140348882659300,1.234659423828125,-4.157645164629817,6.709255647069216,-8.59613205446601
1761140348892719400,1.24471923828125,-5.318727755865455,5.685373202824592,-9.177492265251278
1761140348902778400,1.2547783203125,-5.90712794829011,5.150360901716351,-8.751648194870352
1761140348912838400,1.26483837890625,-5.488104663839936,5.030357388719916,-6.542748741573095
1761140348922898200,1.274898193359375,-3.6188843246430156,4.962890118646621,-3.776550921079516
1761140348932957400,1.28495751953125,-1.4012211346536874,5.08784745465815,-2.0443875210106373
1761140348943017500,1.295017578125,-0.10959431065227836,5.344232784000039,-1.4538807116955519
1761140348953077200,1.3050771484375,-0.004339490509033203,5.705424057206511,-1.7961732231646774
1761140348963136500,1.315136474609375,-0.36520701165385544,5.025470201200246,-2.1724182731181383
1761140348973196300,1.3251962890625,-0.27429033080153165,3.5111358975857496,-2.9455992788761853
1761140348983256300,1.33525634765625,0.01279043492488563,2.3844372219890353,-5.037510183084011
1761140348993315600,1.345315673828125,-0.16472411373257637,1.769870322650671,-6.537321455827355
1761140349003375400,1.355375244140625,-0.5117779943846166,0.5052443548321723,-7.202534254297614
1761140349013435400,1.365435302734375,-0.6722526339791715,-0.5137602542430162,-7.377389885944128
1761140349023494400,1.375494384765625,-0.6109188982248306,-0.9102192401856184,-7.0377359062850475
1761140349033554400,1.385554443359375,-0.24203765503764152,-1.0842916124999522,-6.152381642764807
1761140349043614500,1.395614501953125,0.3277380625464022,-1.0391770440101622,-5.3612476316869255
1761140349053673200,1.405673095703125,0.7360394619740546,-1.1888988189220429,-5.080376680386066
1761140349063733200,1.415733154296875,0.9186487034220248,-1.425530231001973,-4.459533184996247
1761140349073792500,1.42579248046875,0.9333400765974074,-1.2596896804600954,-3.8381367318987842
1761140349083852300,1.435852294921875,0.7505600816924125,-1.1905845800518988,-3.2883009556680918
1761140349093912300,1.445912353515625,0.3610461656473577,-0.9626093526363372,-3.3083798671007156
1761140349103971600,1.4559716796875,-0.21033201869726179,-0.9170826962143183,-3.3738749603182074
1761140349114031400,1.46603125,-0.7410977682769299,-0.8869903402894734,-3.3009032476097344
1761140349124091400,1.47609130859375,-1.0984054049830883,-0.8303688738793135,-3.1798581166058777
1761140349134150100,1.486150146484375,-1.3128805878996848,-0.6953864029377699,-3.033855654478073
1761140349144210400,1.49621044921875,-1.3167466156780718,-0.33091420836448665,-2.894597405913472
1761140349154270500,1.5062705078125,-0.9972306572277099,-0.08836042049825191,-2.1857529709875583
1761140349164329200,1.5163291015625,-0.4844892246384173,0.0012514613658189773,-1.4461264443069695
1761140349174389200,1.52638916015625,0.14967844722680745,0.07460486686825751,-1.059963226929307
1761140349184449500,1.536449462890625,0.7662778022408485,0.0381850614875555,-0.9089332920283079
1761140349194508300,1.54650830078125,1.118650978219509,-0.07434709271490574,-0.7349772395700216
1761140349204568300,1.556568359375,1.132923833721876,-0.4269429715335369,-0.5741933878958225
1761140349214628400,1.56662841796875,0.8505226041138172,-0.8610831610947847,-0.5807762734174728
1761140349224687400,1.576687255859375,0.38438290983214973,-1.1554559835255145,-0.7125707619726658
1761140349234747400,1.586747314453125,-0.08343933070898056,-1.403068223825097,-1.0484650968372822
1761140349244807400,1.596807373046875,-0.3224164291322231,-1.491187821304798,-1.3720061460852622
1761140349254866400,1.606866455078125,-0.41890930268168447,-1.4454519060462712,-1.3296926064908503
1761140349264926500,1.616926513671875,-0.6236813491642474,-1.5586258652836082,-1.1925099951565266
1761140349274986200,1.626986328125,-0.8357165915828197,-1.6141992839455603,-1.1048264510065315
1761140349285045500,1.63704541015625,-0.9835562790751456,-1.6666174534469842,-1.0772188976347445
1761140349295105500,1.64710546875,-1.0194821634590625,-1.7339549596607684,-1.2006325113356113
1761140349305165300,1.657165283203125,-0.9501847553491591,-1.6612357604086398,-1.354848675057292
1761140349315224300,1.667224365234375,-0.8985563479859381,-1.6875871762394905,-1.337767191874981
1761140349325284600,1.67728466796875,-0.6552151360690593,-1.6737784311175345,-1.6394441998392342
1761140349335344400,1.687344482421875,-0.2975602202951908,-1.6154472381800413,-1.7374252661198377
1761140349345403400,1.6974033203125,0.14893033227324484,-1.6414648920118808,-1.6461387290418148
1761140349355463200,1.707463134765625,0.6355191595394164,-1.5673445937901735,-1.7132991251230238
1761140349365522400,1.7175224609375,1.2692495359659195,-1.2996587027549742,-1.4791168597608804
1761140349375582500,1.72758251953125,2.1809645676672456,-0.7712544216096401,-0.5311123710602521
1761140349385642200,1.737642333984375,2.6412264559566974,-0.393960154864192,0.8844441629379988
1761140349395701500,1.747701416015625,3.2451006963670253,0.3507552193880081,1.5939257267236708
1761140349405761500,1.757761474609375,3.617749767655134,1.2596820816755294,1.6835785251200197
1761140349415821300,1.7678212890625,3.209483439540863,2.0328870528310534,1.2189590261429548
1761140349425880300,1.77788037109375,1.5064134474873543,1.4646072728931903,1.4986539194017647
1761140349435940400,1.7879404296875,0.016903057875484226,0.638016748508811,1.4106757762193678
1761140349446000400,1.79800048828125,-1.0235154375631361,0.2009603792399168,0.8046095787227153
1761140349456059400,1.808059326171875,-1.7577930774964392,0.13230009998977182,0.059148354539275166
1761140349466119200,1.818119140625,-2.392692424637079,0.34062194790840145,-0.59215808365345
1761140349476179500,1.828179443359375,-2.821317650169134,0.5863900216460227,-1.0946955176144837
1761140349486238500,1.838238525390625,-2.942971852982044,0.38857553921639915,-1.5104899031460284
1761140349496298200,1.84829833984375,-2.758983066809177,0.13897884710133074,-1.5928525445342063
1761140349506358300,1.858358154296875,-2.1003766808666287,0.07439794611930847,-1.191371346515417
1761140349516417300,1.868417236328125,-1.1024651287026703,0.287156899702549,-0.8519880004912614
1761140349526477300,1.878477294921875,-0.16408333161100744,0.5343284104973077,-0.5460264470756053
1761140349536537300,1.888537353515625,0.7076901503242552,0.522479567271471,-0.07975801184773444
1761140349546596400,1.898596435546875,1.4444577804423868,0.4845914429038763,0.41322015112936494
1761140349556656400,1.908656494140625,1.8577555268526076,0.5180746103107929,0.6894844854176044
1761140349566716400,1.91871630859375,1.9060289977647362,0.5549105952769517,0.6888818433493376
1761140349576775400,1.928775390625,1.7403696490086613,0.5101747969716787,0.6967354794591665
1761140349586835500,1.93883544921875,1.4572645089149474,0.4080459633618593,0.7507306890189647
1761140349596895500,1.9488955078125,1.1843139753498135,0.26656594709455966,0.7137357140988111
1761140349606954200,1.958954345703125,0.8478758889973164,0.19590484941601752,0.5333563505947589
1761140349617014500,1.9690146484375,0.46675125030875203,0.215551799172163,0.34202538496553897
1761140349627073300,1.9790732421875,0.0650853433728218,0.019888357296586036,0.18054595224261283
1761140349637133300,1.98913330078125,-0.19672537201866505,-0.09444587789177894,0.2064145529925823
1761140349647193300,1.999193359375,-0.05221417136192322,0.025885551884770392,0.49250879189968105
1761140349657252400,2.00925244140625,0.20237901386618612,0.055363575303554534,0.5572995362401009
1761140349667312400,2.0193125,0.33448212997913357,-0.08731646440327168,0.3694844697773456
1761140349677372400,2.029372314453125,0.19166370471492408,-0.32593174377679823,0.09353753087520598
1761140349687431400,2.039431396484375,0.0034299013834446666,-0.5498159024864435,-0.15951719273924828
1761140349697491500,2.049491455078125,-0.12632920888662338,-0.6766062991440296,-0.29376959584057327
1761140349707551500,2.059551513671875,-0.26067243207655844,-0.8081365838050841,-0.4516425285041332
1761140349717610200,2.0696103515625,-0.401024321096763,-0.7303197691529989,-0.8987111732214689
1761140349727670500,2.07967041015625,-0.554257757391408,-0.7821212680608034,-0.8573363757818937
1761140349737731000,2.08973095703125,-0.7022072619337588,-0.676861150687933,-0.7197656419128179
1761140349747789800,2.099789794921875,-0.7142541850149631,-0.3454536058485508,-0.48175475817322727
1761140349757849900,2.109849853515625,-0.6426759724915028,0.05521627578735351,0.0630161358833313
1761140349767910000,2.119909912109375,-0.5358358924508094,0.2451706923663616,0.45719957810938355
1761140349777969000,2.129968994140625,-0.3393077965699136,0.2533464000374079,0.6410784741669893
1761140349788029000,2.14002880859375,-0.1275918492335826,0.06449789887368679,0.5806757356524467
1761140349798088700,2.150088623046875,-0.02432648587450385,-0.12535948707163333,0.37050446047484875
1761140349808148000,2.16014794921875,-0.13625541348680853,-0.1913952630370855,0.17941724047362803
1761140349818208000,2.1702080078125,-0.3455190723001957,-0.2535498136550188,0.004566869524121284
1761140349828266800,2.180266845703125,-0.5416859336532652,-0.2733341260552406,-0.1906377226680517
1761140349838327000,2.1903271484375,-0.6341759282369166,-0.24250176541805266,-0.35138474946320053
1761140349848386800,2.20038671875,-0.5224504142422228,-0.18135317697227,-0.29082652812600135
1761140349858445800,2.21044580078125,-0.31428477979861197,-0.11467793405950069,-0.1523527079373598
1761140349868505900,2.220505859375,-0.15529577565193176,-0.036250878554582595,-0.11157996804416179
1761140349878566000,2.23056591796875,0.0917465558052063,-0.004072364005446433,-0.09260697202682494
1761140349888625000,2.240625,0.3228092278420925,0.032546763339638705,-0.10951719029545784
1761140349898685000,2.250684814453125,0.3310731252532452,0.09298106603622436,-0.14680734876990317
1761140349908744700,2.26074462890625,0.24454525394439697,0.11995265959203243,-0.1256353814035654
1761140349918804000,2.270803955078125,0.15594240299239753,0.19863573568463325,-0.03015606881082058
1761140349928863700,2.28086376953125,0.05710194340348244,0.26114158395826814,0.08601064250171184
1761140349938923800,2.290923828125,-0.03131641782708466,0.3237327724277973,0.24998364560604094
1761140349948983000,2.300983154296875,-0.07987382024712861,0.3557002745747566,0.4099924212545156
1761140349959042800,2.311042724609375,-0.0926654242157936,0.32420506611466404,0.4921984107762575
1761140349969102800,2.321102783203125,-0.06806289787888527,0.2553887195199728,0.5238029248297215
1761140349979161900,2.331161865234375,-0.06191489664316177,0.23418168084025381,0.519808886757493
1761140349989222000,2.341221923828125,0.08321268234625458,0.21207447845041752,0.5758183587491512
1761140349999282000,2.351281982421875,0.3704360714137554,0.1247983460575342,0.5842091704756022
1761140350009340700,2.361340576171875,0.6336348070975393,0.09681903676390648,0.6363046838939189
1761140350019401000,2.37140087890625,0.8485236123163252,0.02691431041061878,0.6387117450356483
1761140350029460000,2.3814599609375,1.0128723168652505,-0.06392389837801456,0.5904395892977714
1761140350039519700,2.391519775390625,1.0862824209909885,-0.03161269735991955,0.6143021109223366
1761140350049579800,2.401579833984375,1.0841021543424576,-0.0643231268286705,0.6121990011632442
1761140350059639000,2.41163916015625,0.9752081374466418,-0.03366729180216789,0.5277455249756574
1761140350069698800,2.42169873046875,0.7613795818705111,-0.03128887223303318,0.4700462002009153
1761140350079758800,2.4317587890625,0.4370248781520873,-0.06236907015144825,0.33447219310700893
1761140350089817900,2.44181787109375,0.10624496369175612,-0.08515490245521068,0.1481090790182352
1761140350099878000,2.4518779296875,-0.08693016849942505,-0.0336930107653141,0.04098199872970581
1761140350109938000,2.46193798828125,-0.14651158069372175,0.06228548352122307,0.07128887418806552
1761140350119996700,2.47199658203125,-0.10120755404643714,0.13488719387352466,0.11048515854477882
1761140350130057000,2.482056884765625,-0.026840149195864794,0.0955412719130516,0.16889000124037265
1761140350140117000,2.492116943359375,0.04416873900704085,0.009179916277527808,0.17568156107664107
1761140350150175700,2.50217578125,0.11619352625422179,-0.09460252975821494,0.12043956632614135
1761140350160235800,2.51223583984375,0.16291552994064987,-0.1762380259156227,0.08567571145892143
1761140350170296000,2.522296142578125,0.0528209781486541,-0.3512450487315655,-0.06017477497756481
1761140350180354800,2.532354736328125,-0.05728657925538718,-0.44125382095873356,-0.23420155458450315
1761140350190414800,2.542414794921875,0.13747494534440338,-0.31230536948442456,-0.25983693110048767
1761140350200473900,2.552473876953125,0.21994981493540106,-0.2746814490109682,-0.38727790062129497
1761140350210534000,2.562533935546875,0.14499774206466973,-0.38642449866235257,-0.5193652346432208
1761140350220594000,2.572593994140625,0.011803908105567097,-0.38618542920947074,-0.38687341147363186
1761140350230653000,2.58265283203125,-0.03296586553454399,-0.3186421712905168,-0.4630687624037266
1761140350240713000,2.592712890625,-0.06584770604744553,-0.32637130423784255,-0.5972972001075745
1761140350250773000,2.60277294921875,-0.04100654864907265,-0.4006996922522783,-0.610373539301753
1761140350260831700,2.612831787109375,-0.07521035848073661,-0.29886954932808873,-0.5158370605170727
1761140350270892000,2.62289208984375,-0.09689385556578635,-0.17848083640635012,-0.3385954105168581
1761140350280952000,2.6329521484375,-0.16608962993212043,-0.10976911922991275,-0.22139292641580102
1761140350291010800,2.6430107421875,-0.2879388438604772,-0.1305629009336233,-0.23286767563223837
1761140350301070800,2.65307080078125,-0.38807701510973275,-0.16950316470265386,-0.36147593536674977
1761140350311131000,2.663130859375,-0.4992633807264268,-0.26941081513166426,-0.4580295991927385
1761140350321190000,2.67318994140625,-0.5227999583322555,-0.28835575409829617,-0.41586861981153483
1761140350331250000,2.68325,-0.4152689003527164,-0.1955705028951168,-0.2157347545236349
1761140350341309700,2.693309814453125,-0.26712423856444656,-0.04676175117492676,0.09223521610498428
1761140350351369000,2.703368896484375,-0.06799165927357971,0.07228139235675335,0.47248073387145995
1761140350361429000,2.713428955078125,0.10219788025803864,0.2289361814022064,0.8217401617437601
1761140350371488800,2.72348876953125,0.17523147922158241,0.30876082874536515,1.0293570762634277
1761140350381548000,2.733548095703125,0.1511667130231857,0.35349311991930005,1.0155722965389489
1761140350391607800,2.74360791015625,0.13218027300238608,0.4313338999688625,1.036652493968606
1761140350401666800,2.753666748046875,0.10678864211440085,0.4880535660564899,1.0988590670347214
1761140350411726800,2.763726806640625,0.07187756079621613,0.47769876078069207,0.9872668240308761
1761140350421787000,2.773786865234375,0.08291676813960075,0.4311497755736112,0.7766448824763298
1761140350431846000,2.783845947265625,0.11595854845456778,0.2664846985518932,0.5563181239873171
1761140350441906000,2.793906005859375,0.1920072574555874,0.15081658441126344,0.4348673347920179
1761140350451965700,2.803965576171875,0.2893161966282874,0.07646715360879898,0.31110534604489803
1761140350462025000,2.81402490234375,0.385998382204771,0.019891864427924157,0.16592822882533073
1761140350472084700,2.824084716796875,0.4298994832515716,-0.050309214523434634,0.021525018587708472
1761140350482144800,2.834144775390625,0.5305027147293091,-0.13667816894352436,-0.09739479082524775
1761140350492204000,2.8442041015625,0.6059493661839515,-0.2038186912804842,-0.15011165101230142
1761140350502263800,2.854263916015625,0.700137981379032,-0.22139292641580102,-0.10125146625339984
1761140350512323800,2.86432373046875,0.8194237745601683,-0.20624270355701446,-0.10015841031968593
1761140350522382800,2.8743828125,0.8643535610675811,-0.19867489865124224,-0.06614975773394108
1761140350532443000,2.88444287109375,0.8113760771829635,-0.12302782925367355,-0.023052374285459518
1761140350542502000,2.894501953125,0.7352760033208876,-0.06692483375966549,-0.07146306171119213
1761140350552561700,2.904561767578125,0.569188711476326,-0.04483575154840946,-0.1617605877518654
1761140350562622000,2.9146220703125,0.3241968097429722,0.0444376921415329,-0.1824205139428377
1761140350572681000,2.924680908203125,0.12440035971589386,0.18552490969896315,-0.053316579645872116
1761140350582740700,2.93474072265625,-0.06882745251059531,0.3624573476195335,0.11710545346736907
1761140350592800800,2.94480078125,-0.30504319646172223,0.47084699518978596,0.23294132539033888
1761140350602860000,2.954860107421875,-0.4932277538239956,0.46758711661100383,0.3598527180790901
1761140350612919800,2.964919921875,-0.6336580418426543,0.41739305289983747,0.40712475686371324
1761140350622979800,2.974979736328125,-0.7377320912361145,0.349470440274477,0.47148996926844117
1761140350633038800,2.985038818359375,-0.7950140673816204,0.2827987044930458,0.5486842681080103
1761140350643099000,2.995098876953125,-0.7590028428018093,0.2513403209120035,0.5952332533150911
1761140350653159000,3.005158935546875,-0.6622399201393127,0.20881284630596636,0.6408896735966205
1761140350663217700,3.0152177734375,-0.5444938306808471,0.18670681295990943,0.6986117947250604
1761140350673278000,3.02527783203125,-0.3793758222598582,0.2307844396173954,0.7916980747014284
1761140350683337000,3.0353369140625,-0.31861236067414284,0.17865034775435923,0.774941585689783
1761140350693396700,3.045396728515625,-0.3085306001860648,0.0815337893486023,0.6477022762209177
1761140350703456800,3.055456787109375,-0.2522750444788486,0.011883914539217949,0.4530559024333954
1761140350713515800,3.065515869140625,-0.16738376139588654,-0.06962181775867939,0.2776017203718424
1761140350723575800,3.075575927734375,-0.014248378648236392,-0.13342939628064632,0.056952890321612354
1761140350733635000,3.085635009765625,0.1680290004968643,-0.15285715032815933,0.009679097971320152
1761140350743694300,3.0956943359375,0.30311200920343395,-0.11710545346736907,0.00916939488351345
1761140350753754000,3.105754150390625,0.32145204107947645,-0.10968144094645976,-0.05532207424938678
1761140350763814100,3.115814208984375,0.34578086504153904,-0.13982874192893505,-0.04667991811037063
1761140350773873400,3.125873291015625,0.3092050653815269,-0.21882979792952537,-0.09872457812428474
1761140350783933200,3.13593310546875,0.26731245461292563,-0.25138065292239187,-0.2292769576638937
1761140350793993200,3.1459931640625,0.22039047137498854,-0.3081739687681198,-0.33565526541173457
1761140350804052500,3.156052490234375,0.2274116752486676,-0.4060492365866899,-0.4405278447717428
1761140350814112300,3.1661123046875,0.3787736185830086,-0.49818683753609655,-0.5101116686075926
1761140350824171300,3.176171142578125,0.5431541795749217,-0.4809264906555414,-0.43385786548852917
1761140350834231000,3.18623095703125,0.5768927099823952,-0.39222938554883,-0.30181495513021944
1761140350844291300,3.196291259765625,0.5472436408456415,-0.3713789052218199,-0.2849649426162243
1761140350854350300,3.206350341796875,0.5180980642516165,-0.35065292805731296,-0.24413433505594728
1761140350864410000,3.21641015625,0.4516179055195301,-0.30157179402410983,-0.1966764183104038
1761140350874470100,3.22647021484375,0.35423312463164325,-0.2551853059023619,-0.2812543976604938
1761140350884529400,3.236529296875,0.23147534449100493,-0.2299520804464817,-0.45836336119174953
1761140350894589200,3.246589111328125,0.1170820725917816,-0.2710176658064127,-0.5206061746150255
1761140350904649200,3.256649169921875,0.010289996411278843,-0.295532513859868,-0.6048802025824784
1761140350914708200,3.266708251953125,-0.0634347266215831,-0.3307172244876623,-0.7859913874924183
1761140350924768300,3.276768310546875,-0.21383337788172066,-0.3787257608532905,-0.9639660279422998
1761140350934828300,3.286828369140625,-0.39036717187352477,-0.43222821846008297,-1.015991983255744
1761140350944887000,3.296886962890625,-0.5018050280332566,-0.4584884488761425,-1.030947560325265
1761140350954947300,3.306947265625,-0.5035070827107876,-0.5678092398166656,-1.1502110686093567
1761140350965006300,3.31700634765625,-0.39039157566241917,-0.755620214626193,-1.3508505453318356
1761140350975066000,3.327066162109375,-0.24783128987774253,-0.9571014028698205,-1.643221380290389
1761140350985126100,3.337126220703125,-0.18183643044456838,-1.2810966256260872,-1.9044237545251845
1761140350995185200,3.34718505859375,-0.44398178461790083,-1.5855243936032055,-2.190874551784992
1761140351005245200,3.3572451171875,-0.4941419460594654,-1.4187334104686975,-2.402648001462221
1761140351015305200,3.36730517578125,-0.49376317587494845,-1.3938392077088355,-2.6721909185409545
1761140351025364200,3.3773642578125,-0.3476115145348012,-1.598409009617567,-3.1278526195585727
1761140351035424300,3.38742431640625,-0.13930091866254807,-1.9385797066271304,-4.099924212545156
1761140351045484300,3.397484375,0.0889092134874314,-2.31603939306736,-5.148758727216721
1761140351055543300,3.407543212890625,0.3096820352435112,-2.705923676794767,-5.991699497899413
1761140351065603300,3.417603271484375,0.40766427056789395,-2.7188123844623564,-6.75790481942594
1761140351075663400,3.427663330078125,0.34266536336950953,-2.5172107847094534,-6.9882800937205545
1761140351085722000,3.43772216796875,0.011393427608534692,-2.3366274230659005,-6.456625286346673
1761140351095782400,3.447782470703125,-0.8062205210506915,-1.3217635670572518,-6.7722291128546
1761140351105841200,3.457841064453125,-1.8713176037371158,-0.34397827259898184,-7.046212642729282
1761140351115901200,3.467901123046875,-2.548579151919484,0.5305044682949781,-6.822579828432202
1761140351125961200,3.477961181640625,-3.3091052587658165,1.2095973235577344,-6.55389206687808
1761140351136020200,3.488020263671875,-4.277466306796669,1.5809475872069596,-6.420229446363448
1761140351146080300,3.498080322265625,-4.310335141697526,1.5483774429917334,-6.520757859039306
1761140351156140300,3.508140380859375,-4.606688908812403,2.040162012270093,-7.022874437239766
1761140351166199300,3.51819921875,-4.653639460557699,2.462370356497168,-7.32811235255599
1761140351176259300,3.52825927734375,-3.688905078591406,2.756081500148773,-7.473664732828736
1761140351186319400,3.5383193359375,-2.7886940222010015,2.7757711200028656,-7.300180974057317
1761140351196378000,3.548378173828125,-1.9571230790555476,2.5292013744935393,-6.817352449172735
1761140351206438400,3.5584384765625,-1.4222896416455506,2.264557043111324,-6.24504765150249
1761140351216497200,3.5684970703125,-1.0192506927907465,2.1307219886392352,-5.856914010834694
1761140351226557200,3.57855712890625,-0.6308733064949512,2.092003843188286,-5.419599282890558
1761140351236617200,3.5886171875,-0.32770401414632794,1.8751307322844861,-4.582480934751033
1761140351246676200,3.59867626953125,-0.05856324812769889,2.1455188680157065,-4.276223613259196
1761140351256736300,3.608736328125,0.27448680322170255,2.4011861122161147,-3.9579485217154025
1761140351266796300,3.61879638671875,0.2511000824153423,2.498794838052988,-3.649411564853787
1761140351276855300,3.628855224609375,-0.1422054079324007,2.6738082906097174,-3.5048768371909853
1761140351286915300,3.638915283203125,-0.5533399849593639,2.7499504500478507,-3.6313989383012055
1761140351296975000,3.64897509765625,-0.11460545334517955,2.8249659435436127,-3.317392610117793
1761140351307034400,3.659034423828125,0.8369938449770211,2.712472367785871,-3.011023644945025
1761140351317094400,3.669094482421875,1.5184288794517515,2.570373635098338,-2.7501827974990007
1761140351327154200,3.679154296875,1.5087182172983884,2.4150977331906556,-2.3969778468713163
1761140351337213200,3.689213134765625,0.8026689660489559,2.050062644037604,-1.8486416615486143
1761140351347273500,3.6992734375,0.3599000643521547,1.548112800706178,-1.4066092574328184
1761140351357332200,3.709332275390625,0.27352760280072685,1.283521514685452,-0.992464684934914
1761140351367392300,3.719392333984375,0.428863710463047,1.207733283251524,-0.6071306118577718
1761140351377452000,3.7294521484375,0.6897288155674934,1.2637994538664816,-0.4354986184328794
1761140351387511300,3.73951123046875,0.9498223517775535,1.4378968144915998,-0.5556985307842492
1761140351397571300,3.7495712890625,0.8445733403205871,1.775619679957628,-0.7426853297293186
1761140351407631000,3.759631103515625,0.7735200284540653,2.06781603513211,-0.926058468221873
1761140351417690400,3.7696904296875,0.867263311034441,2.46133195336014,-1.2247669087041169
1761140351427750400,3.77975048828125,1.0572042836099862,3.0968264899149536,-1.5642694241285324
1761140351437810200,3.78981005859375,1.768652179032564,3.7460906086251136,-1.852428194350004
1761140351447869200,3.799869140625,2.562442257577181,4.236805210584402,-2.2173244595542547
1761140351457929200,3.80992919921875,2.2941677529990674,4.553471697887778,-2.615560976563394
1761140351467988200,3.81998828125,1.6854069095909594,5.350439821946621,-3.0655168671548365
1761140351478048300,3.83004833984375,1.4027274475634097,6.310733883377909,-3.3125533533930778
1761140351488108000,3.84010791015625,1.1059779591292143,6.753475897067785,-3.2910821108192203
1761140351498167300,3.850167236328125,1.2521662992179392,6.954668331497907,-3.170125534881651
1761140351508227300,3.860227294921875,1.8212527193635701,6.9189330012500285,-2.8817689040005203
1761140351518287000,3.870287109375,2.3597908565104007,6.241383283776044,-2.4061142162680627
1761140351528346400,3.880346435546875,2.4337983420073983,4.833614627175033,-1.2763421245753765
1761140351538406100,3.89040625,2.224599711254239,3.4521479943051934,-0.011657120046019553
1761140351548466200,3.900466064453125,2.2697242166161535,2.928456128634512,0.1272644439101219
1761140351558525400,3.910525390625,2.852235935524106,3.029828883180022,-0.8650720846004784
1761140351568585200,3.920585205078125,3.5810476382017136,3.1423069691076875,-2.041295254083723
1761140351578644200,3.930644287109375,4.132935086265206,3.311049378570914,-2.468404083703458
1761140351588704300,3.940704345703125,4.289399905696511,3.5989003980174656,-2.0021429549992082
1761140351598764300,3.950764404296875,4.078621312275529,4.050320515942573,-0.9791948689952492
1761140351608823300,3.9608232421875,3.8830724366903304,4.3913650731772185,0.4499636355064809
1761140351618883000,3.970883056640625,3.611294892427325,4.634629055139422,0.9438270568855106
1761140351628943000,3.980943115234375,3.284840001559257,4.546577846720814,0.5664208541981876
1761140351639002400,3.99100244140625,3.015070874509215,4.079147381976247,0.21215835734158753
1761140351649062100,4.001062255859375,2.8875381350517273,3.440892733058333,-0.1901947281409055
1761140351659122200,4.0111220703125,2.7971687128186224,2.7059979110747574,-0.47658875371217724
1761140351669181400,4.021181396484375,2.8883716632664203,1.7066887670725583,-0.29549473913274704
1761140351679241200,4.0312412109375,3.861566122803092,1.9688497572064398,-0.9735243490781634
1761140351689300200,4.04130029296875,4.057262297904491,2.161976374080777,-0.8632748259201646
1761140351699360300,4.0513603515625,3.684676939502358,2.262901092597842,-0.6050961103554815
1761140351709420300,4.061420166015625,3.0100410636484622,2.563633513188362,-0.3049495268289
1761140351719479300,4.071479248046875,2.2073528083771468,2.6971178545266388,0.14115180722624063
1761140351729539000,4.0815390625,1.6326269210398197,2.469014616817236,0.5421437969559804
1761140351739599000,4.09159912109375,1.1042127030223607,2.067189135405421,0.5413776348890736
1761140351749658000,4.101658203125,0.5600497117310762,1.6836317166119812,0.23706651556156574
1761140351759718100,4.11171826171875,0.007079144605994224,1.6034025801211595,-0.012658296445198357
1761140351769778200,4.121778076171875,-0.18948738358914852,1.329168874877691,-0.07439750772789121
1761140351779837200,4.131837158203125,-0.24259996509552,0.6894710414141416,-0.20965510581638663
1761140351789897200,4.141897216796875,-0.28850889883339403,0.08723989203572273,-0.33034313047826286
1761140351799956000,4.1519560546875,-0.21141221514940262,-0.25648411354124545,-0.628119039350748
1761140351810016300,4.162016357421875,-0.10012100091874598,-0.2501853056579828,-1.1386866350322962
1761140351820076300,4.172076171875,0.14375439094007014,-0.09460779045522212,-1.2863961933389305
1761140351830135000,4.182135009765625,0.3638783203333616,-0.29454350282251834,-0.9089379682034253
1761140351840195000,4.192195068359375,0.46705227908194064,-0.5641109698206186,-0.6758890907853842
1761140351850255400,4.20225537109375,0.6325052916109561,-0.5652542946368455,-0.7062755342859774
1761140351860314000,4.212314208984375,0.8951812455296516,-0.38577041866779327,-0.41594080826491114
1761140351870374100,4.2223740234375,1.2416279540687798,-0.3034340807646513,0.119446171374619
1761140351880434200,4.23243408203125,1.4647043035268783,-0.4448796102404594,0.3851522867694497
1761140351890493200,4.2424931640625,1.5112094495922326,-0.5540770670622587,0.3551278084490448
1761140351900553200,4.25255322265625,1.136021799737215,-0.7537322089225054,0.0910534498413559
1761140351910612200,4.2626123046875,0.2578711839854717,-1.0545961469382048,-0.31465174994748085
1761140351920672300,4.27267236328125,-0.6786877815932035,-1.2793123725578188,-0.7186679098039865
1761140351930732300,4.282732177734375,-1.300265436476469,-1.3064783196419476,-0.8629073808472603
1761140351940791000,4.292791015625,-1.53131875616312,-0.8311839896544814,-0.953977206434682
1761140351950851300,4.302851318359375,-1.3600398139595984,-0.1008393783211708,-1.0899258189946412
1761140351960911400,4.312911376953125,-1.0252250910252332,0.3668400927484035,-1.0727892446242273
1761140351970970000,4.32297021484375,-0.640991380405426,0.5432999447211623,-0.7123293544322252
1761140351981030100,4.333030029296875,-0.2389052022308111,0.5060542099103331,-0.11567790488228201
1761140351991089200,4.343089111328125,0.1336345634639263,0.21642858200669288,0.3680725936854258
1761140352001149200,4.353149169921875,0.4028261828869581,-0.2321346851825714,0.5286656720278784
1761140352011209200,4.363209228515625,0.5467243662118911,-0.5501251145660877,0.4097600738033652
1761140352021268200,4.373268310546875,0.5795160442233085,-0.6939829658806324,0.15106277772467583
1761140352031328300,4.383328369140625,0.6730237644821405,-0.7671879028230905,-0.21144418119024483
1761140352041388300,4.39338818359375,0.7448463071554898,-0.699559889230132,-0.5985274725548922
1761140352051447000,4.403447021484375,0.6413631363272666,-0.3826782978713512,-0.7376141639448702
1761140352061507300,4.41350732421875,0.4925497084319591,0.05052607214450836,-0.6469285153694451
1761140352071567000,4.423567138671875,0.3090373075991869,0.4944681092739105,-0.425123172227852
1761140352081626000,4.433626220703125,0.0721966366827488,0.6945131272345781,-0.24923480000011622
1761140352091686100,4.44368603515625,-0.049853871971368785,0.5566881263434886,-0.14919314792789518
1761140352101745200,4.4537451171875,-0.15468962645232676,0.13031331008672714,-0.09281192001439631
1761140352111805200,4.46380517578125,-0.24505028085708616,-0.23599019156694412,-0.18605360974818466
1761140352121865200,4.473865234375,-0.24418518846035003,-0.3666092066019773,-0.433710858233273
1761140352131924200,4.48392431640625,-0.24472470216453074,-0.2816051107943058,-0.6269072524081916
1761140352141984300,4.493984375,-0.35943595397174355,-0.1686567770063877,-0.5835671097123996
1761140352152044000,4.5040439453125,-0.5220628031641245,-0.06273381181061267,-0.4409539246967062
1761140352162103300,4.514103271484375,-0.462299531596899,0.10039280359745024,-0.350946832969971
1761140352172163300,4.524163330078125,-0.3011450930446386,0.21520576221346854,-0.273870753682591
1761140352182223000,4.53422314453125,-0.11653729819059372,0.29181495464146134,-0.19295838416796177
1761140352192282000,4.5442822265625,0.07929273242354393,0.36716684048473835,-0.1271205784600228
1761140352202342100,4.554342041015625,0.24028350484669206,0.4690794009953737,0.04962269356399774
1761140352212401200,4.564401123046875,0.42675826261639593,0.5135486573189497,0.21076777976602315
1761140352222461200,4.574461181640625,0.6035556759804487,0.40236265702843665,0.2611222216706723
1761140352232521000,4.58452099609375,0.713459819766879,0.24193887083828447,0.1956103965140879
1761140352242580200,4.594580322265625,0.7189695230990648,0.11728022551238536,0.08759864234551787
1761140352252640300,4.60464013671875,0.7088461884915829,0.03677227208018303,-0.009772767604142427
1761140352262700000,4.614699951171875,0.5388040946066379,-0.0038473230779170987,-0.04234247342795133
1761140352272759300,4.62475927734375,0.23043197291791437,0.050234395721554755,0.01676554910093546
1761140352282819300,4.6348193359375,-0.09725918174684046,0.2052256354689598,0.17110110141858456
1761140352292878000,4.644878173828125,-0.4259697425872087,0.29424715022444725,0.3128558429740369
1761140352302938000,4.654938232421875,-0.6241822844237089,0.39893443614542484,0.41598800840750333
1761140352312998100,4.664998046875,-0.5816419503360987,0.5015297182232141,0.5230336209576577
1761140352323057200,4.67505712890625,-0.2793763288289308,0.5124614466041326,0.5371098579093814
1761140352333117200,4.6851171875,0.12432254523932933,0.3263303877055645,0.4308487468004226
1761140352343177000,4.695177001953125,0.35543256354928016,0.196594000723958,0.38026290729269385
1761140352353236200,4.705236328125,0.29409283644557,0.012438625812530517,0.22285174692198634
1761140352363296300,4.715296142578125,0.06215571966171264,-0.09513736728727817,0.08372019347697496
1761140352373356000,4.72535595703125,-0.11415186435878276,-0.03447685461938381,0.11325703441090881
1761140352383415300,4.735415283203125,-0.20968378392159936,0.07535305488705635,0.17567936911955476
1761140352393475000,4.74547509765625,-0.1292173315435648,0.1879752254605293,0.2345015604443848
1761140352403534000,4.7555341796875,0.120977326464653,0.28587328963279723,0.319319412964955
1761140352413594400,4.765594482421875,0.3768973763823509,0.2868330745756626,0.44227943767942485
1761140352423654100,4.775654052734375,0.5427250674426556,0.1634498560130596,0.42081981247812505
1761140352433713200,4.785713134765625,0.5113637144953013,0.03237666746973991,0.35131997713129964
1761140352443773200,4.795773193359375,0.31508944724500176,-0.293583717879653,0.39329285006187853
1761140352453833200,4.805833251953125,0.24849019217789173,-0.28655542667806144,0.06751384916137904
1761140352463892200,4.815892333984375,0.24137480721473692,-0.09735562785863876,-0.3321199308924377
1761140352473952000,4.825951904296875,0.2300263147264719,-0.044072950482368464,-0.5875285241566598
1761140352484011300,4.83601123046875,0.18286299701333045,-0.03723755150437355,-0.7594311512164771
1761140352494071300,4.8460712890625,0.09253624487817287,-0.02437105566859245,-0.7967337307810783
1761140352504131000,4.856131103515625,0.01483048938512802,0.10802198330163955,-0.777889841036126
1761140352514190000,4.866190185546875,0.011064414849877358,0.23061259018182753,-0.5970286488318816
1761140352524250400,4.87625048828125,0.07743044568300246,0.3040226943075657,-0.34836971249096094
1761140352534310100,4.88631005859375,0.09962707992196082,0.27741934954226016,-0.21455686985068023
1761140352544369200,4.896369140625,-0.009438859474658966,0.18639350922703743,-0.0804105574723333
1761140352554429000,4.906428955078125,-0.2672439924865961,0.03167816381156444,0.06561539512891322
1761140352564488200,4.91648828125,-0.5214654217928648,-0.0686491733342409,0.14657416106853632
1761140352574548200,4.92654833984375,-0.529620671197772,-0.10300094026923179,0.013862192342244088
1761140352584608000,4.93660791015625,-0.40880233468711374,-0.09401333169341086,-0.199030397558026
1761140352594667300,4.946667236328125,-0.297410582691431,-0.037566637328267094,-0.35577016147319224
1761140352604727300,4.956727294921875,-0.28960779998600483,0.06495791760087014,-0.37627489710245277
1761140352614787000,4.966787109375,-0.3463058387637138,0.11542670660018921,-0.3311431582821533
1761140352624846300,4.976846435546875,-0.3899965119302273,0.041374797439575194,-0.16570212845187635
1761140352634906000,4.986906005859375,-0.27082652714848515,-0.028200258567929265,0.14565342949442564
1761140352644966100,4.996966064453125,0.07502455358505249,-0.026156185519695282,0.22939488495513796
1761140352655025200,5.007025146484375,0.37259880240559573,-0.040347792479395864,0.06905928850509226
1761140352665085200,5.017085205078125,0.4839899698793888,-0.1280003569692373,-0.06545790301226079
1761140352675144200,5.027144287109375,0.3883125043660402,-0.17295125932991504,-0.07368519474007189
1761140352685204200,5.037204345703125,0.09679916301965713,-0.1522352190375328,-0.0007448270179331302
1761140352695264000,5.047263916015625,-0.2804226230114698,-0.06799947725385427,0.1099814102737233
1761140352705323300,5.0573232421875,-0.5906096851676702,0.08295242397487163,0.19131781388670205
1761140352715383000,5.067383056640625,-0.6290753171622753,0.2525231009557843,0.20280403434522448
1761140352725443000,5.077443115234375,-0.485923568290472,0.36513270430862904,0.19686554767433553
1761140352735502600,5.087502685546875,-0.18417466413378714,0.3579474689796567,0.18296631125733256
1761140352745562600,5.097562744140625,0.21480828732848167,0.23834406121671198,0.11522460815683007
1761140352755621400,5.107621337890625,0.5361825139313936,0.05356178657859564,-0.0009352350234985351
1761140352765681400,5.117681396484375,0.6818921305924653,-0.10398469060957431,-0.1215153423314914
1761140352775741700,5.12774169921875,0.6612468174487351,-0.1939727123096585,-0.24477135431785135
1761140352785800400,5.137800537109375,0.6807675104767084,-0.20850889492332933,-0.37651173806563015
1761140352795860500,5.147860595703125,0.7091098078638315,-0.1903460462450981,-0.4590052027592435
1761140352805920500,5.15792041015625,0.7192068389862776,-0.1278659169346094,-0.35277879763748493
1761140352815979500,5.1679794921875,0.6244353824019432,-0.027073592625558376,-0.08397862521745264
1761140352826039600,5.17803955078125,0.46097675856053827,0.09453618652373552,0.13636786088533698
1761140352836098600,5.1880986328125,0.24503742137551307,0.18878069662451744,0.2772020900623873
1761140352846158600,5.19815869140625,0.03586041793227195,0.25077479598373176,0.3386509035637602
1761140352856218600,5.208218505859375,-0.0017360300123691558,0.2324769227489829,0.24932799470890313
1761140352866277400,5.21827734375,0.1369154848307371,0.08050999925881623,-0.0437281921653077
1761140352876337400,5.22833740234375,0.5006944364428519,-0.01316957043558359,-0.36497638123575593
1761140352886397700,5.238397705078125,0.8145335913658142,-0.05211977107673883,-0.5120304713083431
1761140352896456400,5.24845654296875,0.9097071990102529,-0.05429682285487652,-0.4587995241193101
1761140352906516500,5.2585166015625,0.8359411210536957,-0.014205927745997904,-0.33511863778438417
1761140352916576500,5.268576416015625,0.6205237619161605,0.05964052197039127,-0.21013266020026056
1761140352926635500,5.278635498046875,0.27851240547597406,0.1412365629002452,-0.04439593535903841
1761140352936695600,5.288695556640625,-0.09775485630929469,0.23073738560527562,0.19539284477327018
1761140352946754600,5.298754638671875,-0.3454080131411552,0.3317676103234291,0.3441326229104772
1761140352956814600,5.308814697265625,-0.42909635017514225,0.3923793154135346,0.3721883949737996
1761140352966874600,5.31887451171875,-0.3832376853197813,0.40681086860895155,0.3313810586912557
1761140352976933400,5.328933349609375,-0.21145956142246722,0.3603445932492614,0.22261103350128977
1761140352986993700,5.33899365234375,-0.030514380729198452,0.25124533610492944,0.09532171087823807
1761140352997053400,5.349053466796875,0.16534253789186476,0.11940963875651359,-0.06555244942791759
1761140353007112400,5.359112548828125,0.41193303392827507,-0.003186228820681572,-0.23008951615579426
1761140353017172500,5.36917236328125,0.5484960520595312,-0.12307517552673816,-0.3196789304597303
1761140353027231500,5.3792314453125,0.38007016119956966,-0.16988778010606764,-0.3481237749058753
1761140353037291500,5.38929150390625,0.10172142185270786,-0.09966302801817654,-0.27943174881059674
1761140353047351600,5.3993515625,-0.2713625337213278,0.025393092192709445,-0.13219430152773856
1761140353057410600,5.40941064453125,-0.7111532963901758,0.1357569624453783,0.04149389377459883
1761140353067470600,5.419470703125,-1.0168518149554728,0.19928046332895755,0.1375013949599117
1761140353077530400,5.4295302734375,-1.0424287392824887,0.23516543118059635,0.1534220176693052
1761140353087589400,5.43958935546875,-0.8131319078743457,0.24534984832555054,0.11942764933723955
1761140353097649700,5.449649658203125,-0.3739385265767574,0.15527473286390303,0.03242401374280453
1761140353107708400,5.45970849609375,0.14349135608971117,0.004105389492213726,-0.13801084231939165
1761140353117768400,5.4697685546875,0.5209399366140365,-0.1346282506763935,-0.27201694250945
1761140353127828500,5.479828369140625,0.7068734271138906,-0.18299685252606868,-0.23484167911894618
1761140353137887500,5.489887451171875,0.7685206127315759,-0.10329612382352352,-0.09377042631562799
1761140353147947500,5.499947509765625,0.8171347137749194,0.04342705379426479,0.045685500245541334
1761140353158007300,5.51000732421875,0.8170598949730395,0.20791472842246292,0.20660189225822687
1761140353168066600,5.520066650390625,0.7273509824752807,0.354919937852025,0.38427345810830593
1761140353178126600,5.530126708984375,0.7064543249189853,0.5238330277070403,0.493638234321028
1761140353188185300,5.540185302734375,0.7412514975339174,0.6459253296762705,0.47486996709555385
1761140353198245600,5.55024560546875,0.7675754408359527,0.6966293887361884,0.44488114461041983
1761140353208305700,5.5603056640625,0.932943113169074,0.7606757444500922,0.38479061385020613
1761140353218364400,5.570364501953125,1.2080325584590434,0.8804100851163268,0.33165012142360206
1761140353228424400,5.580424560546875,1.4923200402051209,0.9964318350002169,0.3114136813417077
1761140353238484500,5.590484375,1.7769062126368282,1.0661898463591932,0.2634782832775265
1761140353248543500,5.60054345703125,2.028518336227536,1.1483172176867722,0.21569668753556906
1761140353258603500,5.610603515625,2.0743442678570747,1.1812523958221077,0.22136647680029273
1761140353268662500,5.62066259765625,1.8072452367991207,1.1190934612900019,0.2934587032604962
1761140353278722600,5.63072265625,1.202791150674224,1.0652177864566446,0.3813455148976296
1761140353288782600,5.640782470703125,0.4851233578234911,1.1705410321936012,0.4590059699442237
1761140353298841600,5.650841552734375,0.02543722359538078,1.4202186805903911,0.4330316437974572
1761140353308901600,5.660901611328125,-0.10954349378049373,1.5633260057985783,0.4078872656688094
1761140353318961400,5.67096142578125,-0.03274842339158058,1.4721028893455863,0.47028534271903333
1761140353329020400,5.6810205078125,0.2454448331326246,1.272294018228352,0.398327994684875
1761140353339080400,5.69108056640625,0.6218102945953607,0.9496116316363215,0.28555823233425615
1761140353349139500,5.701139404296875,0.926641382676363,0.5635784703791141,0.2067128052867949
1761140353359199500,5.711199462890625,1.1745914766281842,0.28182839815616606,0.20792210801132022
1761140353369259500,5.721259521484375,1.2970078959852456,0.0970636591747403,0.3062791679974645
1761140353379318500,5.731318603515625,1.1398743835121392,-0.0700835900515318,0.4606137704670429
1761140353389378600,5.741378662109375,0.6400105526745319,-0.2498503746151924,0.578934298812598
1761140353399438300,5.751438232421875,-0.08298924885392188,-0.3405062125742435,0.6623689533464611
1761140353409497600,5.76149755859375,-0.6960404829323291,-0.24648528209626674,0.6416508672274649
1761140353419557600,5.7715576171875,-0.9982838926076888,-0.21198066268712282,0.5832940283920616
1761140353429616400,5.781616455078125,-0.9857143338918686,-0.256578221565485,0.5482604897379875
1761140353439676400,5.791676513671875,-0.7749298952519893,-0.350160468365252,0.4777009527377784
1761140353449736700,5.80173681640625,-0.5035492413520812,-0.4057788952127099,0.35462848062478003
1761140353459795500,5.81179541015625,-0.37251521577537056,-0.4945964118286967,0.26892325081042945
1761140353469855500,5.82185546875,-0.36180034501552577,-0.5701370982423425,0.18612725950628517
1761140353479915300,5.831915283203125,-0.5615899269104003,-0.7255573770567775,0.1641809467665851
1761140353489974500,5.841974609375,-0.8842617921084165,-0.9055272829771042,0.2565070560254156
1761140353500034600,5.85203466796875,-1.177754909095168,-1.0501613793611526,0.276201790446043
1761140353510093600,5.862093505859375,-1.3591624466031789,-1.0620078844994305,0.2521428694665432
1761140353520153600,5.872153564453125,-1.4620178409218787,-1.0684332413718103,0.23587255653664468
1761140353530213600,5.882213623046875,-1.4661749606013297,-1.0595268813386558,0.16656375024989245
1761140353540272400,5.8922724609375,-1.4379630115956068,-0.9761895496994256,0.011358283229917287
1761140353550332700,5.902332763671875,-1.4832348164737224,-0.8851125637188554,-0.1603678912844509
1761140353560392400,5.912392333984375,-1.5685083768725394,-0.7823530309900641,-0.3916660525776446
1761140353570451500,5.922451416015625,-1.6810796940416097,-0.6972308617606758,-0.6393190632790327
1761140353580511500,5.932511474609375,-1.7682547041475771,-0.604851268748939,-0.8016083510801195
1761140353590570500,5.942570556640625,-1.7456038964003324,-0.45908524572551246,-0.7879246205773204
1761140353600630500,5.952630615234375,-1.6134125174820422,-0.3569055587112903,-0.7253438073713332
1761140353610690600,5.962690673828125,-1.4259791438132523,-0.28521044180989263,-0.5877662053700536
1761140353620749600,5.97274951171875,-1.1849813532173632,-0.1632005574271083,-0.48474466070421035
1761140353630809600,5.9828095703125,-0.8295072886139154,0.018432313269376752,-0.5397219401039183
1761140353640869400,5.992869384765625,-0.4209826018244028,0.1324491530716419,-0.5396705021776259
1761140353650928400,6.002928466796875,-0.04466974733173847,0.15346826796382665,-0.4786716974660754
1761140353660988700,6.01298876953125,0.2686386617153883,0.15687895319014786,-0.4392318136118352
1761140353671047400,6.02304736328125,0.5771452234387398,0.15744447811841963,-0.45988143760450184
1761140353681107500,6.033107421875,0.8578501705229282,0.1344602006331086,-0.45318186690062284
1761140353691167500,6.04316748046875,1.1001233878821135,0.06781710642427205,-0.41550599704422053
1761140353701226500,6.0532265625,1.2385405094474553,0.003596855448186397,-0.3275559109125286
1761140353711286500,6.06328662109375,1.2711609225451945,-0.007822948710620403,-0.2221575541127473
1761140353721345500,6.073345458984375,1.175815465465188,-0.03568886075764894,-0.16739179857186973
1761140353731405600,6.083405517578125,0.9697790981352329,-0.14190934759527443,-0.15368081473596393
1761140353741465600,6.093465576171875,0.673489043906331,-0.3037538142383098,-0.14220241225771604
1761140353751524600,6.103524658203125,0.37342239374816416,-0.4804764088004827,-0.13512268312983214
1761140353761584600,6.113584716796875,0.17951193301975726,-0.6038932373717427,-0.20235344103351235
1761140353771644700,6.123644775390625,0.07470774272084235,-0.6926748058915138,-0.30852921194657684
1761140353781703700,6.13370361328125,0.02929623711109161,-0.7515691856697201,-0.41410511727035043
1761140353791763500,6.143763427734375,0.07069383090436458,-0.7582669297426938,-0.5017359813850373
1761140353801822700,6.15382275390625,0.07996317903101444,-0.7490113178804516,-0.5696544292919338
1761140353811882800,6.1638828125,-0.10484569135308265,-0.6995911611512303,-0.6274308378908783
1761140353821942500,6.173942626953125,-0.3003583265811205,-0.5236106171280145,-0.6839741244982928
1761140353832001800,6.184001708984375,-0.4333592683166265,-0.2829711384505033,-0.6929298035658895
1761140353842061600,6.1940615234375,-0.576402296116948,-0.11178688879311084,-0.574155759299174
1761140353852121600,6.20412158203125,-0.6623766982614994,0.11867694056779146,-0.4175681902710348
1761140353862180600,6.2141806640625,-0.6737187610089779,0.3874862826749682,-0.204903052451089
1761140353872240600,6.22424072265625,-0.5931704755663871,0.6207461724951863,-0.031115634557977317
1761140353882299600,6.234299560546875,-0.40293139682710166,0.8133978653341531,0.09593896599374711
1761140353892359700,6.244359619140625,-0.1112397763043642,0.8942463027670979,0.21789595114551483
1761140353902419500,6.25441943359375,0.18067103992700576,0.8674541574314236,0.3131030226681381
1761140353912478700,6.264478759765625,0.364897726508975,0.8089215967029333,0.41328970923423763
1761140353922538500,6.27453857421875,0.47573476723134517,0.7291711836397647,0.5157523048430681
1761140353932598500,6.2845986328125,0.5911760868787765,0.6492921757608652,0.5391287234511226
1761140353942657800,6.29465771484375,0.6772679779231547,0.5491694212764501,0.5059340906620026
1761140353952717600,6.304717529296875,0.7294149292677641,0.39679245568066834,0.4478349529147148
1761140353962776600,6.314776611328125,0.6784609871000051,0.2070665871605277,0.34138248395211995
1761140353972836600,6.324836669921875,0.5663198780417442,-0.005029226338863373,0.23147607514336704
1761140353982896600,6.334896728515625,0.3197147689580917,-0.21147885064482688,0.1862443100146949
1761140353992955600,6.34495556640625,-0.056416883748769756,-0.33555677347332236,0.18308124287389219
1761140354003015400,6.355015380859375,-0.31448563613295555,-0.27669746500849723,0.1039886361323297
1761140354013075700,6.36507568359375,-0.3646493047058582,-0.2099775061711669,0.02191547921001911
1761140354023134700,6.375134765625,-0.3557762624204159,-0.2412929741501808,0.0113185357414186
1761140354033194500,6.385194580078125,-0.3058300359904766,-0.33074323571175335,0.022225568072497842
1761140354043253800,6.395253662109375,-0.26180034012794495,-0.38184272383004425,-0.011097732597589493
1761140354053313800,6.405313720703125,-0.2280781032681465,-0.40986762583106756,-0.020260259348899124
1761140354063373600,6.41537353515625,-0.16499474736750125,-0.3930860023781657,0.016090499383583663
1761140354073432600,6.4254326171875,-0.06412672747373581,-0.39630174955427644,0.10762633504755795
1761140354083492600,6.43549267578125,0.0743576141089201,-0.4158794334664941,0.20697700918093323
1761140354093551600,6.445551513671875,0.20721827059090137,-0.4343246062174439,0.2485398765385151
1761140354103611600,6.455611572265625,0.3148655753612518,-0.45690527133792636,0.27247356370314957
1761140354113671400,6.46567138671875,0.28549744205772876,-0.48135143806934355,0.313986381373927
1761140354123730700,6.475730712890625,0.08861410299837588,-0.44800417200177906,0.3025929537653923
1761140354133790700,6.485790771484375,-0.1012228246808052,-0.3286778276145458,0.21703641170673071
1761140354143850500,6.4958505859375,-0.226713829177618,-0.19966595551520586,0.14470570031553506
1761140354153909800,6.50590966796875,-0.2777262235343456,-0.07410773100107908,0.13085063183382153
1761140354163969500,6.515969482421875,-0.3200888629674911,0.05299538486748934,0.15258176745288074
1761140354174028500,6.526028564453125,-0.4584305812090635,0.1914937549754977,0.20082922714091836
1761140354184088800,6.5360888671875,-0.5967898351073265,0.35702158630639313,0.2225984297480434
1761140354194148600,6.546148681640625,-0.7599760717481374,0.5622939835265278,0.19253018535114824
1761140354204207600,6.55620751953125,-0.8619435773164034,0.7602452440783382,0.12550185468439012
1761140354214267600,6.566267578125,-0.8593862940490246,0.9556655248478054,0.14336294393707066
1761140354224327700,6.57632763671875,-0.7487561740756035,1.106935405984521,0.15336648808978498
1761140354234386700,6.58638671875,-0.575227407118678,1.17227764672786,0.2070316254450008
1761140354244446500,6.596446533203125,-0.3628559915482998,1.2027061027392745,0.24411493623573333
1761140354254505700,6.606505615234375,-0.08583294784724711,1.1559396753892301,0.21620211630705743
1761140354264565800,6.616565673828125,0.2226893959671259,1.0485805399104953,0.15621113693118094
1761140354274625500,6.62662548828125,0.4846054714292288,0.8979249912798404,0.17963431729041038
1761140354284684500,6.6366845703125,0.7375666715413332,0.7539467284560203,0.15850830795764922
1761140354294744800,6.646744873046875,0.9774006790548563,0.6175467919319868,0.14329948677942156
1761140354304804600,6.6568046875,1.1372165624797343,0.48294396795779465,0.1438965393571183
1761140354314863600,6.666863525390625,1.2215917127341032,0.34951252585053444,0.18428451771643012
1761140354324923400,6.67692333984375,1.218977146321535,0.22910072431415318,0.2270115700151771
1761140354334982700,6.686982666015625,1.0645347726285457,0.0858949071675539,0.16673618420735
1761140354345042700,6.697042724609375,0.9010077597260474,-0.009771160168945789,0.08125796808190644
1761140354355102500,6.7071025390625,0.8127689197808503,-0.08590046012550592,-0.0064425272028893225
1761140354365161700,6.71716162109375,0.7485188581883907,-0.20233342115879058,-0.13029343634247778
1761140354375221800,6.7272216796875,0.6866127293735742,-0.28530981053113935,-0.16890775609277187
1761140354385280500,6.737280517578125,0.5043868612200021,-0.31637861027270553,-0.1493121711976826
1761140354395340800,6.7473408203125,0.18589900370836257,-0.3282411897629499,-0.09564352671112865
1761140354405400600,6.757400634765625,-0.266722014439106,-0.3666609367892146,-0.07471311301570385
1761140354415459600,6.76745947265625,-0.7224474283426999,-0.3657923372611403,-0.041783560903556644
1761140354425519600,6.77751953125,-1.1088391937792301,-0.3324173064038157,0.06102211252190173
1761140354435579600,6.78757958984375,-1.4719400999993084,-0.2631009013324976,0.1708107949688099
1761140354445638700,6.797638671875,-1.731892766433954,-0.15918416139259933,0.24443801244394853
1761140354455698700,6.80769873046875,-1.9217466452479361,-0.08374313596114516,0.3222333276502788
1761140354465757700,6.8177578125,-1.9744366174280643,0.011745090590417385,0.40716465048268435
1761140354475817700,6.827817626953125,-1.8788567670702934,0.108573187443614,0.47982773563340303
1761140354485877500,6.83787744140625,-1.6379554225862025,0.1654907141909003,0.5357895690910518
1761140354495936500,6.8479365234375,-1.2401304089874028,0.20836101088523865,0.5199062096521258
1761140354505996800,6.857996826171875,-0.7536305021136999,0.28500118297338484,0.4135147136291489
1761140354516055600,6.8680556640625,-0.2206669502288103,0.4128633005157113,0.25542804688336324
1761140354526115600,6.878115478515625,0.3065706252247095,0.5611433521866798,0.11810469363778829
1761140354536175600,6.888175537109375,0.7847381725609303,0.6830570827186108,0.08230882884170859
1761140354546234600,6.898234619140625,1.2443331213742495,0.7989148742124438,0.1580960190960206
1761140354556294700,6.908294677734375,1.758545795559883,0.9304480814829468,0.2847673559512012
1761140354566354400,6.9183544921875,2.356294831088185,1.065388174587488,0.4126286149770021
1761140354576413700,6.92841357421875,2.952380901840329,1.1486714379519223,0.47656500751040876
1761140354586473700,6.9384736328125,3.514728369119763,1.1749655706375837,0.4107444817308336
1761140354596532500,6.948532470703125,4.086602958679199,1.0771405717015266,0.27710431051002815
1761140354606592800,6.9585927734375,4.627642264991999,0.9422928330555558,0.03798888132832944
1761140354616652800,6.96865283203125,5.036647428774834,0.7389037653639913,-0.4107152556363493
1761140354626711600,6.978711669921875,5.417391543713212,0.6664063921689987,-1.0327082863874733
1761140354636771600,6.988771484375,5.60430527742207,0.6646013885736465,-1.4084341347724199
1761140354646831600,6.99883154296875,5.484883363705873,0.7466559869259596,-1.6837065354138612
1761140354656890600,7.008890625,4.865659578472376,0.9235279268309473,-2.106199834062159
1761140354666950700,7.01895068359375,3.3217800314217802,0.8220303768619894,-2.0044854264721272
1761140354677009700,7.029009765625,0.8436176470309495,0.3618072131477296,-1.5442638701930642
1761140354687069700,7.039069580078125,-2.228801254597306,-0.02898278724774718,-1.3129447391770779
1761140354697129700,7.049129638671875,-5.305614007270336,-0.0942863034158945,-1.1804382298950105
1761140354707188500,7.0591884765625,-7.144630931383371,0.17415040598660705,-1.0940195180490613
1761140354717248800,7.069248779296875,-7.646289828944206,0.41873847615942356,-0.9188096661373972
1761140354727307500,7.0793076171875,-7.403376560115814,0.26524229727536436,-0.4629779788477346
1761140354737367000,7.089366943359375,-6.427838752323389,-0.10692118245288729,-0.06342048803367652
1761140354747427300,7.09942724609375,-5.112220848414301,-0.4385897163160145,0.15285893129329195
1761140354757486000,7.109486083984375,-3.8180841239511962,-0.668215633548051,0.08681446056473069
1761140354767546000,7.119546142578125,-2.700399944937229,-0.8831343955136836,-0.010728132100217044
1761140354777606000,7.12960595703125,-1.8855670783638954,-1.1926911969423293,-0.053907421678490934
1761140354787665200,7.1396650390625,-1.3701292462974786,-1.503730199752748,-0.09985400227932259
1761140354797725200,7.14972509765625,-1.0521072527319193,-1.7581398451074957,-0.28952954711802303
1761140354807784200,7.1597841796875,-0.8568056299060582,-1.8779924053259194,-0.5562331125849858
1761140354817844200,7.16984423828125,-0.6953466554492712,-1.908696463408321,-0.8013413707070052
1761140354827904300,7.179904296875,-0.5070604643434286,-1.8815806390762329,-0.9798080324575305
1761140354837963000,7.189962890625,-0.31189795772731305,-1.8649150432184338,-1.0962426739912479
1761140354848023300,7.200023193359375,-0.3876730374187231,-1.892540278377384,-1.0105180818893016
1761140354858082000,7.21008203125,-0.8454963003844023,-1.8527859217464924,-0.7667176549628376
1761140354868142000,7.22014208984375,-1.5703303316026924,-1.5191275292403994,-0.5867634215356782
1761140354878202000,7.2302021484375,-2.3176754698365927,-0.9615006607420742,-0.4139962135357782
1761140354888261000,7.24026123046875,-2.8745108956962824,-0.33306334922239184,-0.17648790902346373
1761140354898321200,7.250321044921875,-3.140943571799993,0.25673735764995215,0.23006693899780511
1761140354908381200,7.260381103515625,-3.172944391694665,0.7724838172741234,0.7897113578636199
1761140354918440200,7.270440185546875,-3.0474001957058903,1.2863676978968084,1.2871753610178827
1761140354928500200,7.280500244140625,-2.637898188316822,1.7775084163136778,1.6003940459549426
1761140354938559000,7.29055908203125,-1.9598463665395973,2.153035234995186,1.8496568299405276
1761140354948619000,7.300618896484375,-1.1296633706212043,2.387155833297968,2.0949819822162388
1761140354958679300,7.31067919921875,-0.2033604261189699,2.5184008712768553,2.2535119174838063
1761140354968738000,7.320738037109375,0.681657737314701,2.575097156488895,2.2456375308468934
1761140354978798000,7.330798095703125,1.3863158264666795,2.553989778791368,2.1661776251628995
1761140354988857000,7.340857177734375,1.984929369869828,2.4506331569522617,2.0739147903986273
1761140354998917000,7.350917236328125,2.5822505353748797,2.2830045539498327,1.878174630025029
1761140355008977200,7.36097705078125,3.1218548404484987,2.1330510161086917,1.6599562419921159
1761140355019036200,7.3710361328125,3.6082208918094634,1.9838398210674524,1.4499677760355174
1761140355029096200,7.38109619140625,3.9895261477619406,1.8031468615695834,1.2946448201157152
1761140355039155000,7.391155029296875,4.359828363662958,1.6331924459680913,1.0988055832818149
1761140355049215000,7.401215087890625,4.854328621640801,1.4954659370154142,0.8797524979904293
1761140355059275300,7.411275146484375,5.339401710581779,1.3948065914362668,0.6958580390375108
1761140355069334000,7.421333984375,5.692895415022969,1.1880430788755416,0.5618126297503709
1761140355079394000,7.43139404296875,5.83297491684258,0.842484843608737,0.297105243069306
1761140355089454000,7.4414541015625,5.7872617979377505,0.47142333377301693,-0.12335550857177004
1761140355099513000,7.45151318359375,5.390875292709469,0.15113807145059108,-0.46082028935719277
1761140355109573000,7.461572998046875,4.520142259737849,-0.21045798316448927,-0.8490800771553069
1761140355119632100,7.471632080078125,3.1665742721408603,-0.6723901427537202,-1.255263826841861
1761140355129692200,7.481692138671875,1.4195266066730021,-1.0979770235031843,-1.5585500235684215
1761140355139752200,7.491752197265625,-0.3934674029111862,-1.2543901127472519,-1.8966393842592835
1761140355149811000,7.50181103515625,-1.7121078695118426,-1.2337686188705266,-2.2248247521817683
1761140355159871000,7.51187109375,-2.2935382229238748,-1.1241858159929514,-2.3611057385012506
1761140355169930200,7.52193017578125,-2.2600749292612075,-1.0754019113406539,-2.2655958846397697
1761140355179990000,7.531989990234375,-1.8655016109347342,-1.0940674488440156,-1.966697255347669
1761140355190050000,7.542050048828125,-1.490111716505885,-1.1202039067499339,-1.6106528435103595
1761140355200109000,7.552109130859375,-1.286660104972124,-1.1369919599436222,-1.4041545577570795
1761140355210169000,7.562169189453125,-1.2401941218733787,-1.1435586249828338,-1.2043852879978716
1761140355220228000,7.57222802734375,-1.3472294322252272,-1.1377508154869078,-0.9686407417550682
1761140355230288100,7.5822880859375,-1.462170401135087,-1.082958610330522,-0.795347683250159
1761140355240348200,7.59234814453125,-1.6087100388795137,-0.9759519415512681,-0.7845438190326094
1761140355250407200,7.6024072265625,-1.7122873177319764,-0.8393341244928538,-0.9364690953381359
1761140355260467000,7.612467041015625,-1.7370003187060354,-0.7261977207869291,-1.0312823452375828
1761140355270527200,7.62252734375,-1.7082663916528225,-0.6451118213362992,-0.9988357543367892
1761140355280586000,7.6325859375,-1.6633873854845762,-0.5382714490346611,-0.8553622992299497
1761140355290646000,7.64264599609375,-1.5810586463660001,-0.4239994654275477,-0.747471979483962
1761140355300705300,7.652705322265625,-1.3846937782227993,-0.3254107886426151,-0.6196105925939976
1761140355310765000,7.66276513671875,-1.1822153956353663,-0.24505057311803102,-0.49323845788110043
1761140355320825000,7.6728251953125,-1.010614966392517,-0.24470541294217107,-0.3034895738115534
1761140355330884000,7.682884033203125,-0.9269844970256089,-0.2082433758549392,-0.05573956900909543
1761140355340944100,7.692944091796875,-0.8850228396087885,-0.10247370152473449,0.20926997895631938
1761140355351003100,7.703003173828125,-0.7997171305060387,0.04420154529809951,0.5095512217132374
1761140355361063000,7.71306298828125,-0.695595077252388,0.21984847345277667,0.7428871359117328
1761140355371123200,7.723123291015625,-0.6673036332696676,0.3665422788456082,0.9131141579095273
1761140355381182200,7.73318212890625,-0.7232435471564531,0.44562531404122707,1.0709646595455706
1761140355391242000,7.743241943359375,-0.7609124758154153,0.47643005601912736,1.1672604030877352
1761140355401302000,7.753302001953125,-0.6569359685122966,0.5571316323272884,1.1956025543443858
1761140355411361300,7.763361328125,-0.38223172314763065,0.6250258956409991,1.1951185702197253
1761140355421421000,7.773421142578125,0.05428922407031059,0.5762824691295624,1.1377438012242316
1761140355431480000,7.78347998046875,0.4915449153035879,0.44580753874033685,1.0424548966370522
1761140355441540000,7.7935400390625,0.7903273708701133,0.21340967257693408,0.8790731374241412
1761140355451600100,7.80360009765625,0.9858189633101224,0.024753040723502633,0.6528432923711835
1761140355461659100,7.8136591796875,1.0541717840462923,-0.12754428376480936,0.40132856474034484
1761140355471719000,7.823718994140625,1.0242413406848907,-0.276443344116956,0.15830062002371995
1761140355481778200,7.833778076171875,0.8584107270151377,-0.4420806271716952,-0.08928089634403585
1761140355491838200,7.843838134765625,0.6474287199765444,-0.688470632199943,-0.35549455940220503
1761140355501898000,7.85389794921875,0.4196726882696151,-0.921997356262803,-0.6244055717855691
1761140355511957200,7.863957275390625,0.1816846008837223,-1.0972471017934382,-0.8396136720865964
1761140355522017300,7.874017333984375,-0.21578969958126543,-1.1261321277551353,-0.8781007852606475
1761140355532076000,7.884075927734375,-0.7062006424188614,-1.1377043459966778,-0.8530679046824574
1761140355542136300,7.89413623046875,-1.2643231854796408,-1.0979938285075128,-0.7629690430190413
1761140355552196000,7.904196044921875,-1.7686890039116143,-0.9470977491192519,-0.8178272260837256
1761140355562255000,7.914255126953125,-1.9262053782224653,-0.6351574135549366,-0.9326110316704959
1761140355572315100,7.924315185546875,-1.5977876628488301,-0.19995397867634893,-1.0778807225443423
1761140355582374100,7.9343740234375,-1.1873135955572127,-0.15037717008069157,-1.1922968638624996
1761140355592434200,7.94443408203125,-1.1476917792648076,-0.3688886958412826,-1.0042790413692593
1761140355602494200,7.954494140625,-1.3671551989227533,-0.40009325079172847,-0.5622609945723787
1761140355612553200,7.96455322265625,-1.6478607305288313,-0.27324440194517374,-0.1820016492099501
1761140355622613200,7.97461328125,-1.9930600693553684,-0.06082111005708575,-0.025501767598418518
1761140355632673000,7.984673095703125,-2.180029917165637,0.2537678403198719,-0.05515936710149981
1761140355642732000,7.99473193359375,-2.12620012730062,0.5612561649113893,-0.04137659667101688
1761140355652792300,8.004792236328125,-1.8677333155095577,0.8768632062897086,0.03374763616253622
1761140355662851000,8.01485107421875,-1.3569126218497751,1.2758379744455217,0.2485224504796788
1761140355672911000,8.0249111328125,-0.7980933286964893,1.5161018978089094,0.592792326436378
1761140355682971100,8.03497119140625,-0.28775018942058084,1.5360571828618645,0.860727333394438
1761140355693030100,8.045030029296875,0.2570534378618002,1.4826684147626161,0.9870373261239379
1761140355703090200,8.055090087890624,0.6560387274116277,1.3848746877476572,0.9363772523362189
1761140355713149200,8.065149169921876,0.911825506338477,1.1519923990681766,0.7013797981336712
1761140355723209200,8.075209228515625,1.0744880113661288,0.9331681540966034,0.389762483978644
1761140355733269200,8.085269287109375,1.3157967676073312,0.7562889076679945,0.13342303960509597
1761140355743328800,8.095328857421874,1.4693138431489468,0.7001818205207586,0.030598579280776902
1761140355753388500,8.105388427734376,1.5172890617668628,0.7267842885032296,0.043907165461406106
1761140355763447800,8.11544775390625,1.403066470259428,0.7859045859917998,0.15344585520261897
1761140355773507800,8.1255078125,1.1092378377079963,0.7933554865196347,0.28324049344379454
1761140355783567600,8.135567626953126,0.8368143967568874,0.7701759787231683,0.21584530222602188
1761140355793627000,8.145626953125,0.6889280205786228,0.8066647576868533,0.029149905709270386
1761140355803687000,8.15568701171875,0.7082014608472585,0.822243727351725,-0.030556667234655468
1761140355813745700,8.16574560546875,0.8026286340385675,0.8007692699074744,0.12430334734851493
1761140355823805700,8.1758056640625,0.979577438572049,0.7824623365834354,0.3270083600323647
1761140355833865700,8.18586572265625,1.1494038438796996,0.7031500226765871,0.5160753627849742
1761140355843924700,8.1959248046875,1.1780126832485198,0.5714014190897345,0.7029846029818058
1761140355853984800,8.20598486328125,1.103328321403265,0.491710627259314,0.8114695276200771
1761140355864044500,8.21604443359375,0.9824643921852111,0.44235009176284074,0.7609455743674188
1761140355874103800,8.226103759765625,0.7928682875245809,0.32537703250348565,0.5293018145069479
1761140355884163800,8.236163818359374,0.6746458127260208,0.12808277455568312,0.2488054321395233
1761140355894222800,8.246222900390626,0.6979004315853119,-0.038142683650553226,0.035952662792988116
1761140355904283000,8.256282958984375,0.7542062561750411,-0.1505132175505161,0.016282770552672444
1761140355914342700,8.2663427734375,0.6036772565335035,-0.293962195803225,0.08445855422150343
1761140355924401700,8.276401611328126,0.3287041310995817,-0.33120763835310935,0.11812675933912396
1761140355934462000,8.2864619140625,0.09389525827169418,-0.2857780125647783,0.14313936431426555
1761140355944520700,8.296520751953125,0.03290799786746502,-0.27479864564985035,0.020483400580286977
1761140355954580700,8.306580810546874,0.07460545139014721,-0.2946303043231368,-0.11528612908571959
1761140355964640800,8.316640869140626,0.13376315827965735,-0.3072165219128132,-0.258060861338675
1761140355974699800,8.32669970703125,0.1916366705775261,-0.328550694103539,-0.26138679089099165
1761140355984759800,8.336759765625,0.18436521826982497,-0.29318127455860377,-0.11370170943848788
1761140355994818600,8.346818603515626,0.11208733304440975,-0.12750526692867278,0.074165233341977
1761140356004878800,8.35687890625,0.028086276799440382,0.04514730171561241,0.23376937371231615
1761140356014939000,8.36693896484375,0.05411386750340461,0.2584106976896524,0.406360129166767
1761140356024997600,8.37699755859375,0.10679507185518741,0.4322492612481117,0.5942838436357677
1761140356035057700,8.3870576171875,0.08201075921058654,0.578510082051158,0.6825934837948531
1761140356045116700,8.39711669921875,0.03594166647493839,0.6855413007497787,0.6625756548997014
1761140356055176700,8.4071767578125,-0.11398527562022208,0.6311696590930224,0.4558505015879869
1761140356065236700,8.41723681640625,-0.34810967331528664,0.3639735974013805,0.018338643636554477
1761140356075295700,8.427295654296875,-0.6245820973962545,0.07820347588211297,-0.4541044616382569
1761140356085355800,8.437355712890625,-0.9676800800293683,-0.0842018395140767,-0.8322298454456031
1761140356095414500,8.44741455078125,-1.2871329831808804,-0.13166560147851705,-1.0538964742362498
1761140356105474800,8.457474853515626,-1.1800240230709313,-0.026805297078192233,-1.0747342412121594
1761140356115534800,8.467534912109375,-0.7507277664095163,0.13260755850374698,-0.7930814188186078
1761140356125593600,8.477593505859375,-0.3187128984391689,0.25336773508638144,-0.30181159412935377
1761140356135653600,8.487653564453124,0.05125029476583004,0.38688101025819777,0.030473025805503127
1761140356145713000,8.497712890625,0.3580097205609083,0.5039192437082529,0.21831183847002683
1761140356155772700,8.507772705078125,0.5317465773105621,0.5152560457587242,0.3324522315867245
1761140356165832700,8.517832763671874,0.5675631561011075,0.4240793987959623,0.39735220845527947
1761140356175891700,8.5278916015625,0.5300801054030656,0.351643108138442,0.33103279324285684
1761140356185951700,8.53795166015625,0.5576461577206849,0.2777674323275685,0.08973784633129835
1761140356196010800,8.5480107421875,0.5307961447179317,0.12680500970482825,-0.1698321774613112
1761140356206070800,8.55807080078125,0.4183621901929378,-0.12981120578348637,-0.37900538151226937
1761140356216130800,8.568130859375,0.3279290550738573,-0.2664811914205551,-0.476447957001999
1761140356226189800,8.57818994140625,0.3319067265331745,-0.27092560360878704,-0.539290709079802
1761140356236249600,8.58824951171875,0.23683541021943091,-0.30330840855836866,-0.5498282505113631
1761140356246308900,8.598308837890626,0.07041150683164596,-0.39634646547883745,-0.5194227369841188
1761140356256368600,8.60836865234375,-0.04579729005694389,-0.47786944117248054,-0.5837109386298805
1761140356266428700,8.6184287109375,-0.042756607186794277,-0.5190709278717637,-0.6506519198067486
1761140356276488000,8.628488037109374,0.13772037147283553,-0.48518794749230143,-0.5906528667222708
1761140356286547700,8.638547607421875,0.4098451217383146,-0.38600335064083335,-0.3659216261966154
1761140356296606700,8.648606689453125,0.5742705447852611,-0.2024693224981427,-0.08350468756277114
1761140356306666800,8.658666748046874,0.5514496411681175,0.0759846307888627,0.18985216178093103
1761140356316726800,8.668726806640626,0.31937633078396316,0.2981543867960572,0.4776187178144231
1761140356326785800,8.678785888671875,-0.02084580415189266,0.4633785590052604,0.7012658163651824
1761140356336845600,8.688845458984375,-0.336713834553957,0.5820207205206156,0.8451757631931454
1761140356346904800,8.69890478515625,-0.5087234291195869,0.6517927604049444,0.9769146491035818
1761140356356964900,8.70896484375,-0.5310463200867176,0.6251844472035766,0.9521346473079174
1761140356367024600,8.719024658203125,-0.36764614843428134,0.5337587939158082,0.7025745608761906
1761140356377084000,8.729083984375,0.011846505138278007,0.35922581835240125,0.20826032698974012
1761140356387144000,8.73914404296875,0.30442893702089785,0.10781038637757301,-0.2920246153367683
1761140356397203700,8.74920361328125,0.4321662591397762,-0.11363543926924466,-0.5609403769604862
1761140356407262700,8.7592626953125,0.3026560821294784,-0.1805105886682868,-0.601970598746091
1761140356417322800,8.76932275390625,0.053930327630043025,-0.11795564055591821,-0.4473253228921443
1761140356427381800,8.7793818359375,-0.1280138009727001,-0.016188333734869956,-0.16223565791770814
1761140356437441800,8.78944189453125,-0.32738194258511066,0.06170066937059163,0.10621374656958504
1761140356447501600,8.79950146484375,-0.4929600427985191,0.12489771477878094,0.23576814631409942
1761140356457560800,8.809560791015626,-0.4617804761588573,0.15111469057500362,0.16325592260984703
1761140356467620900,8.819620849609375,-0.2522422381877899,0.17120266209691762,0.13432173287733457
1761140356477679600,8.8296796875,0.057090252965688704,0.21531536006778476,0.22622597259543833
1761140356487740000,8.839739990234374,0.3376479005336761,0.20756167720109223,0.3743862338116392
1761140356497799700,8.849799560546876,0.5707324337869882,0.14645955824553966,0.43975722572542725
1761140356507858700,8.859858642578125,0.7486217340409755,0.06278583425879478,0.2942414511360228
1761140356517918700,8.869918701171875,0.7896095779895782,-0.06621142479330301,0.0050122843372169875
1761140356527977700,8.879977783203126,0.7001397349447012,-0.22856588678508996,-0.2861062033395283
1761140356538037800,8.890037841796875,0.543951394367218,-0.35625761619657276,-0.47012832552641626
1761140356548097800,8.900097900390625,0.30098259595930577,-0.3679226272881031,-0.42431269609518346
1761140356558156800,8.91015673828125,0.019297405666112898,-0.2795908483624458,-0.2036740769117139
1761140356568216800,8.920216796875,-0.27739421510100365,-0.11802519866079092,0.06272562850415707
1761140356578275600,8.930275634765625,-0.43566754525899887,0.02589081258177757,0.2443001383432187
1761140356588335900,8.9403359375,-0.32541268833875653,0.040183834089338774,0.30682098325658586
1761140356598396000,8.95039599609375,0.049962593042850494,0.0229354699075222,0.22608298392817378
1761140356608454700,8.96045458984375,0.4965022454500198,-0.01187339314520359,0.08096766163213177
1761140356618514700,8.9705146484375,0.811143364405632,-0.1148839780256152,-0.12051390107083133
1761140356628573700,8.98057373046875,0.9120037855148315,-0.1522042393773794,-0.33381128151286393
1761140356638633700,8.9906337890625,0.8072761675834655,-0.13887012602984905,-0.4153836127735674
1761140356648693800,9.00069384765625,0.4676163427054882,-0.09771277073323727,-0.24894812854584306
1761140356658752800,9.010752685546874,0.022905659291148184,0.004069441395998001,0.06858245564042591
1761140356668812800,9.020812744140626,-0.3367705331772566,0.1285971538186073,0.34040465189591046
1761140356678871600,9.03087158203125,-0.48954935757219786,0.2407987608924508,0.5375875949563458
1761140356688931600,9.040931640625,-0.47119010953903195,0.3241439835771918,0.5450916504435241
1761140356698991900,9.050991943359374,-0.38399347212314605,0.3656114277362823,0.3668910922832787
1761140356709050600,9.061050537109375,-0.17236907552778719,0.32655864350348707,0.11705516631854697
1761140356719110700,9.071110595703125,0.09757833069860934,0.24598230101019142,-0.06661402337797917
1761140356729170000,9.081169921875,0.14717968921363353,0.13577157549262045,-0.2142072709617205
1761140356739229400,9.0912294921875,0.03083002254962921,0.07000701768398285,-0.3171535036353394
1761140356749289200,9.101289306640625,-0.14207681311666964,0.01813011545240879,-0.2836987951379269
1761140356759348500,9.111348388671875,-0.26745208227932454,0.023605039732158183,-0.09593523053354583
1761140356769408500,9.121408447265624,-0.2765238620072603,0.07004676517248153,0.1214995693736244
1761140356779467300,9.13146728515625,-0.22896657654047012,0.15800532687157393,0.2839946910782717
1761140356789527300,9.14152734375,-0.1848568011790514,0.20292671087682246,0.4163463568584993
1761140356799587600,9.151587646484375,-0.12463234184086322,0.22024112603217363,0.5190385599721222
1761140356809646300,9.161646240234376,-0.10832008946537972,0.19458119959682224,0.5081392725560814
1761140356819706400,9.171706298828125,-0.15774316880404948,0.10649375082105397,0.38818058508206155
1761140356829765400,9.181765380859375,-0.1024427218645811,-0.041754444406926626,0.10529617506694049
1761140356839825400,9.191825439453124,0.020210428857803345,-0.20946283464729784,-0.1700305861102417
1761140356849885400,9.201885498046876,0.143877725058794,-0.31891105135977266,-0.23202771767675875
1761140356859944400,9.2119443359375,0.23065993645489213,-0.37754356533139943,-0.22341511642578987
1761140356870004500,9.22200439453125,0.2884761656075716,-0.41000791108459234,-0.12104485700922087
1761140356880063200,9.232063232421876,0.25087153435647486,-0.3866106688842177,0.07190585530893877
1761140356890123300,9.242123291015625,0.14275602755248545,-0.3177563283666968,0.3113873778566718
1761140356900183600,9.25218359375,0.05199789826273918,-0.2462400751635432,0.41451278475578873
1761140356910242300,9.2622421875,0.14130992039740084,-0.23114801223278045,0.30401007228801025
1761140356920302300,9.27230224609375,0.31284312962293626,-0.23961948798000812,0.15792961302055045
1761140356930361300,9.282361328125,0.38673254169821736,-0.23996260232925415,0.02509299500128254
1761140356940421400,9.29242138671875,0.3398497944921255,-0.26516835525631904,-0.14754755441164596
1761140356950480400,9.30248046875,0.2946627452880144,-0.30195144099146126,-0.26459892133790996
1761140356960540400,9.31254052734375,0.24154314951896666,-0.329578283585608,-0.2781228764354251
1761140356970600400,9.322600341796875,0.2056307091385126,-0.2796954777806997,-0.18483033329723403
1761140356980659500,9.332659423828124,0.1569546487748623,-0.2054457079604268,-0.0973042447312735
1761140356990719200,9.34271923828125,0.14066460823118687,-0.11886515661627053,-0.019962555043958125
1761140357000779300,9.352779296875,0.17857728251814842,0.007009294240176677,0.05363943665837869
1761140357010838300,9.36283837890625,0.18008008829653263,0.13481471315920351,0.2165512402719818
1761140357020898300,9.372898193359376,0.14688275209367274,0.2323027352258563,0.3047230245966464
1761140357030957600,9.38295751953125,0.09965162984132767,0.3131540952682495,0.2831735839537345
1761140357041017300,9.393017333984375,0.051043958538770674,0.34044776038527486,0.19508414415027944
1761140357051077400,9.403077392578124,0.04816927988529205,0.36915509169250726,0.09832178774336352
1761140357061136400,9.413136474609376,0.1149690259605646,0.38246845451295375,0.011856131483148782
1761140357071196400,9.423196533203125,0.09515548746585846,0.31317952197045085,-0.04032681362344883
1761140357081255400,9.43325537109375,0.0528203205615282,0.2869923567906022,-0.02921703439503908
1761140357091315200,9.443315185546876,0.08453764733970165,0.31971301539242264,0.035336814183276145
1761140357101375200,9.453375244140625,0.08568915546238422,0.3701724520415067,0.15289156405441462
1761140357111434500,9.4634345703125,0.034034956070780754,0.40168022772222756,0.3522038107611239
1761140357121494300,9.473494384765624,-0.0432306544393301,0.39014030431509017,0.4772205488096922
1761140357131553500,9.483553466796875,-0.12261807940900325,0.36133155845999715,0.4839450347591191
1761140357141613600,9.493613525390625,-0.09183715669810771,0.2598781398937106,0.3748681355770677
1761140357151672300,9.50367236328125,-0.04084463608562946,0.09093553168326615,0.24789840029720214
1761140357161732400,9.513732421875,0.0068944356888532635,-0.02612608264237642,0.10006244826507754
1761140357171792400,9.52379248046875,-0.0239636439114809,-0.0988748002499342,-0.026170177512429654
1761140357181851400,9.533851318359375,-0.08497837684452533,-0.1950973324254155,-0.03564541434156708
1761140357191911400,9.543911376953124,-0.20170272203981876,-0.2807093309983611,-0.003935741146886721
1761140357201970400,9.553970458984375,-0.35195524282753465,-0.2992778378680348,0.02273418431491591
1761140357212030500,9.564030517578125,-0.5291898785650729,-0.2654819512501359,0.055198767530126494
1761140357222090500,9.574090576171875,-0.6574181990712881,-0.24774025059342383,0.07776179652921855
1761140357232149200,9.584149169921876,-0.6627431934863328,-0.21234745017290113,0.037346966695599254
1761140357242209500,9.59420947265625,-0.5313876808702945,-0.20586802502572535,-0.04089218328809365
1761140357252268300,9.604268310546875,-0.3203372847706079,-0.22941432030797004,-0.11406934630763717
1761140357262328300,9.614328369140624,-0.1552589507728815,-0.24975977372229097,-0.12112831577528267
1761140357272388400,9.624388427734376,-0.0774380444675684,-0.22766017011702058,-0.09583488456476479
1761140357282447400,9.634447265625,-0.09712006553709507,-0.1388502522855997,0.005114858795702457
1761140357292507400,9.64450732421875,-0.19594868855774403,-0.06115209557712078,0.10576359164929017
1761140357302566400,9.65456640625,-0.3102817547023296,0.029374563044309614,0.19614850371247156
1761140357312626400,9.66462646484375,-0.3674538407325744,0.14454378775209187,0.28832640013964844
1761140357322686500,9.6746865234375,-0.2974333790451288,0.2342120759785175,0.3268183904182166
1761140357332745200,9.6847451171875,-0.15672902332544325,0.26962124301195145,0.21610234572701154
1761140357342805500,9.694805419921876,-0.07852116352915764,0.24499475127756595,0.0633760187042877
1761140357352864300,9.7048642578125,-0.07998363729715346,0.20773878733366727,-0.0739053768293932
1761140357362924300,9.71492431640625,-0.05980185001194477,0.21199907512664792,-0.12277513313423842
1761140357372984300,9.724984375,-0.19207681556046008,0.19280776018351314,-0.07443058801358565
1761140357383043300,9.735043212890625,-0.3402957846939564,0.1907221860811114,-0.03836825430104509
1761140357393103400,9.745103271484375,-0.39480303542912004,0.22520400913655755,-0.0030335955422371623
1761140357403162400,9.755162353515624,-0.37956338072121143,0.24708266346752641,0.09737745609795674
1761140357413222400,9.765222412109376,-0.3593582125604152,0.25393676714599134,0.17779091791342944
1761140357423282400,9.775282470703125,-0.3532289160251617,0.2693772051230073,0.1765918443219736
1761140357433341200,9.785341064453124,-0.3811667242646217,0.21164923877567052,0.1591136534396559
1761140357443401200,9.795401123046876,-0.41992403268218037,0.21833149301856755,0.14833399208160117
1761140357453460500,9.80546044921875,-0.4743365908712148,0.25170330900549887,0.09613405017443001
1761140357463520300,9.815520263671875,-0.6057008713155985,0.18343173681199548,0.019332869705138728
1761140357473579500,9.82557958984375,-0.8349830896764994,0.05164660060703754,0.0035532218024367465
1761140357483639600,9.8356396484375,-1.0180986001461745,-0.07039543247967958,-0.049814320845692414
1761140357493699300,9.84569921875,-1.1264426550090312,-0.13695581684112548,-0.22342501676529644
1761140357503758300,9.85575830078125,-1.0472206497341394,-0.19985095669329164,-0.4634047163598239
1761140357513818400,9.865818359375,-0.8175193291783333,-0.25409049640297887,-0.6094379754846915
1761140357523877400,9.87587744140625,-0.5456845017701387,-0.31533582322150466,-0.6634332215771078
1761140357533937400,9.8859375,-0.28235037620365616,-0.3548661618381738,-0.6916792920481413
1761140357543997200,9.8959970703125,-0.039897710624337196,-0.34608313592374323,-0.7095249645359814
1761140357554056400,9.906056396484376,0.17334464256167412,-0.3215609813466668,-0.659050184187293
1761140357564116500,9.916116455078125,0.3387544004708528,-0.25495149714648724,-0.6449068733487278
1761140357574175200,9.92617529296875,0.41916181613802905,-0.1740676961392164,-0.6043848202809691
1761140357584235500,9.936235595703126,0.4355249219179153,-0.08373188391476868,-0.538810012890771
1761140357594295300,9.94629541015625,0.5460977587461471,0.004037584953010082,-0.4825158056735992
1761140357604354300,9.956354248046875,0.8310603632748127,0.11151128672212361,-0.4163513983597979
1761140357614414300,9.966414306640624,0.9942945307105779,0.14819383469223976,-0.26845309428172187
1761140357624473300,9.976473388671875,1.0117565376430748,0.15870178470313548,-0.15357180140353738
1761140357634533400,9.986533447265625,1.1154103888630866,0.25696605183929205,-0.04855093614663929
1761140357644593400,9.996593505859375,1.3317033617913723,0.42790626360774037,0.09304052287219092
1761140357654652400,10.00665234375,1.45082541577816,0.5220438062027096,0.18789008619403466
1761140357664712400,10.01671240234375,1.3337731538027524,0.43117081836163995,0.2864600400121882
1761140357674771200,10.026771240234375,1.0321715491622685,0.36833062356710433,0.22043971734419462
1761140357684831500,10.03683154296875,0.682769497948885,0.4297337712958455,0.09418814027104526
1761140357694891500,10.0468916015625,0.28016952503323556,0.41235476647168395,0.13292794956453144
1761140357704950300,10.0569501953125,-0.02474456515610218,0.36728783651590347,0.12639934238023123
1761140357715010300,10.06701025390625,0.02709609671831131,0.4076335831686854,0.018611501194606535
1761140357725069300,10.0770693359375,0.3707020288735628,0.37675212269276376,-0.06134564538784325
1761140357735129300,10.08712939453125,0.6777373490005731,0.29926877777874467,-0.08349342638324014
1761140357745189600,10.097189697265625,0.8545949681192636,0.23840134436190127,-0.05516887471536174
1761140357755248600,10.10724853515625,0.8943892183691262,0.3125523299828172,0.03858126686406321
1761140357765308700,10.11730859375,0.6699012485474347,0.41980625152140855,0.23421410353882238
1761140357775367700,10.12736767578125,0.3183610162615776,0.4934846511945128,0.45088623024411495
1761140357785427500,10.137427490234375,-0.03167641024589538,0.5091080445230007,0.6117956445267424
1761140357795486700,10.14748681640625,-0.3467226028710603,0.4532844504922628,0.6414796023137868
1761140357805546500,10.15754638671875,-0.3628495618075132,0.34406536636054513,0.5643163561996072
1761140357815606500,10.1676064453125,-0.17367723551690578,0.22080635869950055,0.38958248776923865
1761140357825665800,10.177665771484374,0.13769406798779962,0.08921791411042213,0.21304284855853764
1761140357835725600,10.1877255859375,0.4403852214306593,-0.07737637740820646,0.0694684994936455
1761140357845784600,10.19778466796875,0.5355693504691124,-0.18597849868535996,0.04133768029958009
1761140357855844900,10.207844970703125,0.3798702547132969,-0.1801806260615587,0.0812954870807007
1761140357865904600,10.217904541015624,0.027788170635700223,-0.3658721244990825,0.3869149855930358
1761140357875963600,10.227963623046875,-0.2679793210238218,-0.43067923545241354,0.4663312713310122
1761140357886023400,10.2380234375,-0.49207741474509237,-0.31201340080052614,0.3229105327920988
1761140357896082700,10.248082763671874,-0.6576151829481125,-0.3153895992353558,0.3188901912348345
1761140357906142700,10.258142822265626,-0.6507827065795659,-0.31712738281339403,0.18790581348612903
1761140357916202500,10.268202392578125,-0.4695014257997274,-0.2786559055998921,-0.009862601312063634
1761140357926261800,10.27826171875,-0.2663689632177353,-0.3590934241443872,-0.14248826172808185
1761140357936321800,10.28832177734375,-0.05473462975025176,-0.47726796814799305,-0.3191301740031689
1761140357946380500,10.298380615234375,0.16740823825001716,-0.48774113910645245,-0.5900007960217073
1761140357956440600,10.308440673828125,0.23447452630698679,-0.5504407563865185,-0.6183620538376271
1761140357966499600,10.31849951171875,0.1515209332883358,-0.7728878680303692,-0.2946400402658619
1761140357976559600,10.3285595703125,0.28353520207405086,-0.5054074364393949,-0.5088248436674475
1761140357986619600,10.33861962890625,0.4157984771847725,-0.321375980168581,-0.45940782874338326
1761140357996678700,10.3486787109375,0.5242021532803773,-0.34623569613695143,-0.2529314260283485
1761140358006738700,10.35873876953125,0.6374468396663665,-0.2619143218964338,-0.13597509870808572
1761140358016797400,10.36879736328125,0.6555038898825645,-0.12460603835582733,-0.013490491219330578
1761140358026857700,10.378857666015625,0.5870370873779058,0.05605886409133672,0.0603401216071099
1761140358036917800,10.388917724609374,0.46149639852046964,0.19456804785430432,0.05427245559860021
1761140358046976500,10.3989765625,0.3320417510896921,0.2592752055644989,0.0034636940551921722
1761140358057036500,10.40903662109375,0.18451427135169504,0.33138854787796734,-0.08397477102624253
1761140358067095600,10.419095458984375,0.06373977398276329,0.41954380119293927,-0.0906350691656582
1761140358077155600,10.429155517578126,-0.060709612506628034,0.4867898297309875,-0.06760835904441774
1761140358087214600,10.439214599609375,-0.18652736473977566,0.54934682366997,0.042609636464156206
1761140358097274600,10.449274658203125,-0.2721066300868988,0.6182423729807138,0.13946737953694535
1761140358107334700,10.459334716796874,-0.30633097124993797,0.6525535156443715,0.2729327787127346
1761140358117393700,10.4693935546875,-0.28246961866915227,0.5796478539094329,0.3657714771362021
1761140358127453400,10.479453369140625,-0.23135142585039137,0.43796296271979807,0.367314030403085
1761140358137512700,10.4895126953125,-0.09759294374585151,0.3159501557275653,0.2993136398337781
1761140358147572500,10.499572509765626,0.01800853489935398,0.21245412541776895,0.13879941714750602
1761140358157632500,10.509632568359375,-0.008028992676734924,0.081256433711946,0.0073769311093259595
1761140358167691800,10.51969189453125,-0.1366103644043207,0.015054653529822826,-0.05031909659663215
1761140358177751600,10.52975146484375,-0.258437585696578,0.038950492902100085,-0.030061412797309457
1761140358187810600,10.539810546875,-0.35831250289976596,0.06709142249822617,0.013611706446204333
1761140358197870800,10.549870849609375,-0.4916746791630983,0.12686258511096238,0.15495229597650467
1761140358207929600,10.5599296875,-0.6504752480655909,0.1514332550048828,0.2350333109672181
1761140358217989600,10.56998974609375,-0.7950468006074428,0.09945756857395172,0.16972911894563583
1761140358228049400,10.58004931640625,-0.7702221559524536,0.002903612487018108,0.01831709395844955
1761140358238108700,10.590108642578125,-0.6211123754590749,-0.0927484263241291,-0.1328294393598102
1761140358248168700,10.600168701171874,-0.4211030133336782,-0.17176526441574097,-0.19841683223694562
1761140358258227700,10.610227783203126,-0.18728548963069916,-0.17530512897968292,-0.2534530387496576
1761140358268287700,10.620287841796875,0.039589083066582674,-0.11948767242878675,-0.24207440685145556
1761140358278347800,10.63034765625,0.126807347792387,-0.011241232721507548,-0.14082770810471848
1761140358288406500,10.640406494140626,0.1025648869395256,0.09021803106367587,0.038390667062252755
1761140358298466600,10.650466552734375,0.09704173960387706,0.15720014796853066,0.18624001743206753
1761140358308525600,10.660525634765625,0.21067980922162532,0.25158085166960953,0.2645405056815594
1761140358318585600,10.670585693359374,0.36362756044268607,0.27177754426300527,0.2643211455761455
1761140358328644600,10.68064453125,0.45887832497656345,0.25340689805299044,0.24012005791328847
1761140358338704600,10.69070458984375,0.4636468545526266,0.289861190225184,0.26217092700600625
1761140358348764700,10.7007646484375,0.35840485735833644,0.3351628057196736,0.2578475473815575
1761140358358823400,10.710823486328126,0.1260065528035164,0.3722992349371314,0.21293787208041176
1761140358368883700,10.7208837890625,-0.14983108050525187,0.3755985687434673,0.09701041288385168
1761140358378942700,10.730942626953125,-0.2274894897252321,0.4070741957202553,-0.04548807797729969
1761140358389002500,10.74100244140625,-0.2616740833997726,0.4569306980401277,-0.11217904818216339
1761140358399062500,10.7510625,-0.27621815705895425,0.4728910682380199,-0.10063411067319102
1761140358409121500,10.76112158203125,-0.3100596363842487,0.5206839160263538,-0.06477558330390602
1761140358419181600,10.771181640625,-0.2691173851430416,0.589209462980926,0.009939794734120369
1761140358429240600,10.781240478515626,0.013525836527347564,0.6480179180413485,0.11914495993833989
1761140358439300600,10.791300537109375,0.44637715532183647,0.5585065739423036,0.17217159846061839
1761140358449360600,10.801360595703125,0.8466910631269216,0.3174208128020167,0.23160755603592842
1761140358459419600,10.811419677734374,1.015201125138998,-0.06772709005326032,0.1634903341539204
1761140358469479700,10.821479736328126,1.0566560020774602,-0.26742460975050925,0.1343298522517085
1761140358479538700,10.83153857421875,0.6045552084118128,-0.1831339229092002,0.12175441178437321
1761140358489598500,10.841598388671875,0.3485778753489256,0.009297989699244499,0.10223375528901815
1761140358499657700,10.85165771484375,0.3050444385707378,-0.06349690513759851,0.0875029999513179
1761140358509717800,10.8617177734375,0.41432314393520353,-0.2483934538051486,0.06138966719266027
1761140358519777500,10.871777587890625,0.5275801052808762,-0.35248277383297677,0.04453285961169749
1761140358529836500,10.88183642578125,0.6303881533265113,-0.3981009079307318,-0.03220047065261751
1761140358539896800,10.891896728515626,0.6298866335451603,-0.41087124991565943,-0.20326682955138384
1761140358549955600,10.90195556640625,0.5013105225145816,-0.4232718818053603,-0.30045086370278146
