time,seconds_elapsed,z,y,x
1761140347705679000,0.05767919921875,-0.16364841163158417,0.06637077033519745,-0.3397647440433502
1761140347715738000,0.067738037109375,-0.16899044811725616,0.018039455637335777,-0.21393515169620514
1761140347725798100,0.077798095703125,-0.12588372826576233,-0.03039146028459072,-0.07818372547626495
1761140347735857400,0.087857421875,-0.07800932228565216,-0.07077337056398392,0.020151114091277122
1761140347745917400,0.09791748046875,-0.03124740719795227,-0.10388018935918808,0.06652100384235382
1761140347755977500,0.1079775390625,-0.003268100321292877,-0.1227770671248436,0.059949204325675964
1761140347766036200,0.1180361328125,0.010322276502847672,-0.12283379584550858,0.0030766010750085115
1761140347776096300,0.12809619140625,0.009444152005016804,-0.10313612222671509,-0.0735340267419815
1761140347786156300,0.13815625,-0.013123741373419762,-0.05104628950357437,-0.1557396799325943
1761140347796215300,0.14821533203125,-0.03153568133711815,0.06521249562501907,-0.22719985246658325
1761140347806275300,0.158275390625,-0.024179765954613686,0.148594468832016,-0.2763042747974396
1761140347816335400,0.16833544921875,0.019758567214012146,0.21057523787021637,-0.30327415466308594
1761140347826394400,0.178394287109375,0.08801911026239395,0.2711664140224457,-0.30948492884635925
1761140347836454400,0.188454345703125,0.14580108225345612,0.30667251348495483,-0.30343836545944214
1761140347846514400,0.198514404296875,0.23310188949108124,0.32391273975372314,-0.2795431613922119
1761140347856573400,0.208573486328125,0.23349376022815704,0.38314831256866455,-0.24162955582141876
1761140347866633500,0.218633544921875,0.20681901276111603,0.4146979749202728,-0.19403807818889618
1761140347876693500,0.228693603515625,0.15777575969696045,0.40078914165496826,-0.14339135587215424
1761140347886752300,0.238752197265625,0.06465088576078415,0.35817191004753113,-0.11893875896930695
1761140347896812500,0.2488125,-0.053582798689603806,0.2849668562412262,-0.13036154210567474
1761140347906872300,0.258872314453125,-0.0007629940519109368,0.07137361168861389,-0.19504013657569885
1761140347916931300,0.268931396484375,0.10029210150241852,-0.17300957441329956,-0.30927586555480957
1761140347926991400,0.278991455078125,0.07170359790325165,-0.07640714198350906,-0.3883160948753357
1761140347937051400,0.289051513671875,0.023953795433044434,0.1833113580942154,-0.38818123936653137
1761140347947110400,0.2991103515625,-0.034879691898822784,0.3988037109375,-0.39035916328430176
1761140347957170400,0.30917041015625,-0.12606854736804962,0.5644087791442871,-0.3545687198638916
1761140347967230200,0.319230224609375,-0.2469685971736908,0.7132112979888916,-0.27665582299232483
1761140347977289500,0.32928955078125,-0.3852313756942749,0.7552961707115173,-0.20145490765571594
1761140347987349200,0.339349365234375,-0.5345771908760071,0.6570782661437988,-0.17033134400844574
1761140347997409300,0.3494091796875,-0.6980971097946167,0.5029601454734802,-0.22397351264953613
1761140348007468500,0.359468505859375,-0.8812764883041382,0.33245500922203064,-0.3938775956630707
1761140348017528300,0.3695283203125,-1.0614155530929565,0.31298917531967163,-0.7636809349060059
1761140348027588400,0.37958837890625,-1.0866789817810059,0.07706212252378464,-1.162246823310852
1761140348037647400,0.3896474609375,-1.0049753189086914,0.23327764868736267,-1.3732935190200806
1761140348047707400,0.399707275390625,-0.9447375535964966,0.8457748889923096,-1.4088715314865112
1761140348057767400,0.409767333984375,-0.8590580821037292,1.6298047304153442,-1.459834337234497
1761140348067826200,0.419826171875,-0.6826697587966919,1.668083906173706,-1.5017108917236328
1761140348077886500,0.429886474609375,-0.6264114379882812,1.6843317747116089,-1.4472804069519043
1761140348087946500,0.439946533203125,-0.6523639559745789,1.5451512336730957,-1.333508849143982
1761140348098005200,0.450005126953125,-0.7033982872962952,1.0156077146530151,-1.2231745719909668
1761140348108065300,0.460065185546875,-0.7400002479553223,0.21653519570827484,-1.0412369966506958
1761140348118125300,0.470125244140625,-0.7682308554649353,-0.5911680459976196,-0.7783221006393433
1761140348128184300,0.480184326171875,-0.7924725413322449,-1.2887123823165894,-0.46437081694602966
1761140348138244400,0.490244384765625,-0.8501517176628113,-1.7615963220596313,-0.1471114605665207
1761140348148304400,0.500304443359375,-0.9090741872787476,-2.0730223655700684,0.06393580138683319
1761140348158363400,0.51036328125,-0.9379568099975586,-2.2416863441467285,0.19444572925567627
1761140348168423400,0.52042333984375,-0.959448516368866,-2.00578236579895,0.4068525433540344
1761140348178483500,0.5304833984375,-1.0078195333480835,-1.4874943494796753,0.664619505405426
1761140348188542500,0.54054248046875,-1.0825231075286865,-1.1316547393798828,0.8574358820915222
1761140348198602500,0.5506025390625,-1.1375008821487427,-1.1154953241348267,0.8656221032142639
1761140348208662300,0.560662353515625,-1.1769806146621704,-1.2598825693130493,0.7282488346099854
1761140348218721300,0.57072119140625,-1.1770739555358887,-1.4494354724884033,0.40426358580589294
1761140348228781600,0.580781494140625,-1.1012263298034668,-1.2884060144424438,-0.008583901450037956
1761140348238841300,0.59084130859375,-0.9192661046981812,-0.823238730430603,-0.2998073101043701
1761140348248900400,0.600900390625,-0.5841118097305298,-0.511821985244751,-0.36794084310531616
1761140348258960400,0.61096044921875,-0.15035362541675568,-0.3372263014316559,-0.25292617082595825
1761140348269020400,0.6210205078125,0.2669551968574524,-0.229586660861969,-0.01617889106273651
1761140348279079400,0.631079345703125,0.4259134829044342,-0.14356163144111633,0.19891931116580963
1761140348289139200,0.64113916015625,0.4415885806083679,-0.010076281614601612,0.3633844256401062
1761140348299199200,0.65119921875,0.43537789583206177,0.05145154893398285,0.49849313497543335
1761140348309258500,0.661258544921875,0.40922272205352783,0.00812910869717598,0.6252764463424683
1761140348319318300,0.671318359375,0.44667524099349976,-0.33987072110176086,0.7808163166046143
1761140348329378300,0.68137841796875,0.47814154624938965,-0.899982213973999,0.9119871258735657
1761140348339437600,0.6914375,0.42962726950645447,-1.415399193763733,0.9713103771209717
1761140348349497300,0.701497314453125,0.41597697138786316,-1.5094655752182007,0.9757080078125
1761140348359557400,0.711557373046875,0.37762072682380676,-1.4214063882827759,0.9786534905433655
1761140348369616400,0.721616455078125,0.34058627486228943,-0.9990419149398804,0.9353038668632507
1761140348379676400,0.731676513671875,1.599990725517273,-0.6662277579307556,0.88140869140625
1761140348389736400,0.741736328125,2.4655423164367676,-0.5231888890266418,0.8389818668365479
1761140348399795200,0.751795166015625,2.2465837001800537,-0.6725916266441345,0.5923610925674438
1761140348409855500,0.76185546875,1.9532685279846191,-0.8305929899215698,0.294786661863327
1761140348419915500,0.77191552734375,1.7192623615264893,-0.924023449420929,0.0775090903043747
1761140348429974300,0.781974365234375,1.5043418407440186,-0.86799556016922,-0.024976802989840508
1761140348440034300,0.792034423828125,1.3362752199172974,-0.8164586424827576,-0.04551534727215767
1761140348450094300,0.80209423828125,1.13396418094635,-0.9412479996681213,-0.08013243973255157
1761140348460153300,0.8121533203125,0.8546844124794006,-1.050047516822815,-0.1365576684474945
1761140348470213400,0.82221337890625,0.5130679607391357,-0.942167341709137,-0.1940593123435974
1761140348480273400,0.8322734375,0.1771853119134903,-0.5056752562522888,-0.21132245659828186
1761140348490332400,0.84233251953125,-0.04066099599003792,-0.15605442225933075,-0.18843019008636475
1761140348500392400,0.852392333984375,-0.09538472443819046,-0.008950332179665565,-0.16998934745788574
1761140348510452200,0.8624521484375,-0.039321716874837875,0.2498122602701187,-0.1793239861726761
1761140348520511500,0.872511474609375,0.11375599354505539,0.42459627985954285,-0.2474842518568039
1761140348530571500,0.882571533203125,0.33022117614746094,-0.4756360650062561,-0.3795115351676941
1761140348540631300,0.89263134765625,0.5666835904121399,-1.3132251501083374,-0.5296464562416077
1761140348550690300,0.902690185546875,0.8049589991569519,-2.0482163429260254,-0.6631824374198914
1761140348560750600,0.91275048828125,1.0187931060791016,-2.3608720302581787,-0.724644660949707
1761140348570810400,0.922810302734375,1.1630815267562866,-1.8500694036483765,-0.8505999445915222
1761140348580869400,0.932869384765625,1.2864000797271729,-1.6479123830795288,-0.9857898950576782
1761140348590929200,0.94292919921875,1.4150238037109375,-1.883852243423462,-1.0392628908157349
1761140348600989400,0.952989501953125,1.485959768295288,-2.167013645172119,-1.0571489334106445
1761140348611048400,0.96304833984375,1.5086677074432373,-2.390780210494995,-1.0036396980285645
1761140348621108200,0.973108154296875,1.5002504587173462,-2.4204440116882324,-0.8430135846138
1761140348631167500,0.98316748046875,1.4903701543807983,-2.461726188659668,-0.6219834685325623
1761140348641227500,0.9932275390625,1.5094032287597656,-2.478843927383423,-0.3836185932159424
1761140348651287300,1.003287353515625,1.5680571794509888,-2.286559581756592,-0.12936846911907196
1761140348661346600,1.0133466796875,1.7033205032348633,-2.211951971054077,0.0025474014692008495
1761140348671406300,1.02340625,1.8304660320281982,-2.388671875,0.023336568847298622
1761140348681466400,1.03346630859375,1.8269482851028442,-3.077019453048706,-0.015246923081576824
1761140348691525400,1.043525390625,1.6483811140060425,-4.271482467651367,0.04204299673438072
1761140348701585400,1.05358544921875,1.343953251838684,-5.704682350158691,0.4445687234401703
1761140348711645400,1.0636455078125,1.1323872804641724,-6.862483501434326,1.1237640380859375
1761140348721704400,1.073704345703125,1.376584529876709,-7.3641486167907715,1.8884280920028687
1761140348731764200,1.08376416015625,1.888932704925537,-7.390401840209961,2.456024646759033
1761140348741824500,1.093824462890625,2.4420087337493896,-7.018722057342529,2.7243447303771973
1761140348751883300,1.10388330078125,2.879730701446533,-6.46079158782959,2.6367416381835938
1761140348761943300,1.113943359375,3.166308641433716,-6.024665832519531,2.2198891639709473
1761140348772003300,1.12400341796875,3.4260334968566895,-5.679500102996826,1.6467463970184326
1761140348782062300,1.134062255859375,3.6834218502044678,-5.347892761230469,1.2239912748336792
1761140348792122400,1.144122314453125,3.9901223182678223,-5.1209211349487305,0.9865163564682007
1761140348802182400,1.154182373046875,4.401391506195068,-4.857309818267822,0.637248158454895
1761140348812241400,1.164241455078125,4.779742240905762,-4.358189105987549,-0.044557563960552216
1761140348822301400,1.174301513671875,5.094484329223633,-3.3735649585723877,-1.2502379417419434
1761140348832361500,1.184361572265625,5.385660648345947,-2.111967086791992,-2.860438346862793
1761140348842420200,1.194420166015625,5.351059436798096,-1.4438316822052002,-4.169652938842773
1761140348852480500,1.20448046875,5.2946882247924805,-1.2095680236816406,-4.690688610076904
1761140348862540500,1.21454052734375,5.17711067199707,-1.4820020198822021,-4.599002838134766
1761140348872599300,1.224599365234375,4.8321533203125,-2.094831943511963,-4.00116491317749
1761140348882659300,1.234659423828125,4.258224010467529,-2.738267183303833,-2.9705002307891846
1761140348892719400,1.24471923828125,3.5383195877075195,-3.2429659366607666,-1.602759599685669
1761140348902778400,1.2547783203125,2.9024312496185303,-3.570326328277588,-0.09510527551174164
1761140348912838400,1.26483837890625,2.5352299213409424,-3.8650004863739014,1.1128686666488647
1761140348922898200,1.274898193359375,2.3943769931793213,-4.356899738311768,1.7065070867538452
1761140348932957400,1.28495751953125,2.3605778217315674,-4.75645112991333,1.7867566347122192
1761140348943017500,1.295017578125,2.4810948371887207,-4.790717601776123,1.6710724830627441
1761140348953077200,1.3050771484375,2.7184746265411377,-4.588693618774414,1.6251615285873413
1761140348963136500,1.315136474609375,2.976776123046875,-4.330955982208252,1.6360198259353638
1761140348973196300,1.3251962890625,3.117264986038208,-3.890831232070923,1.5746464729309082
1761140348983256300,1.33525634765625,3.0740230083465576,-3.285270929336548,1.461039423942566
1761140348993315600,1.345315673828125,2.8863115310668945,-2.601430892944336,1.3437365293502808
1761140349003375400,1.355375244140625,2.5860354900360107,-1.8740935325622559,1.2690434455871582
1761140349013435400,1.365435302734375,2.2529873847961426,-1.188040852546692,1.2193094491958618
1761140349023494400,1.375494384765625,1.9511632919311523,-0.5815836191177368,1.1407618522644043
1761140349033554400,1.385554443359375,1.7106307744979858,-0.11775979399681091,0.997377872467041
1761140349043614500,1.395614501953125,1.4197598695755005,0.1753104329109192,0.8245845437049866
1761140349053673200,1.405673095703125,1.1091945171356201,0.3426434397697449,0.6317902207374573
1761140349063733200,1.415733154296875,0.8283384442329407,0.3441445827484131,0.4172261357307434
1761140349073792500,1.42579248046875,0.579136848449707,0.2506508529186249,0.22446201741695404
1761140349083852300,1.435852294921875,0.3552456200122833,0.11975520849227905,0.07658862322568893
1761140349093912300,1.445912353515625,0.11651159822940826,-0.006758786737918854,-0.004565881099551916
1761140349103971600,1.4559716796875,-0.12915319204330444,-0.13701526820659637,0.009143360890448093
1761140349114031400,1.46603125,-0.35769766569137573,-0.23307789862155914,0.08096242696046829
1761140349124091400,1.47609130859375,-0.5427182912826538,-0.2522842288017273,0.1721876859664917
1761140349134150100,1.486150146484375,-0.7078811526298523,-0.18795236945152283,0.2670835554599762
1761140349144210400,1.49621044921875,-0.8024511337280273,-0.044465720653533936,0.35587871074676514
1761140349154270500,1.5062705078125,-0.7499818205833435,0.12015119194984436,0.3928804099559784
1761140349164329200,1.5163291015625,-0.6007677912712097,0.30104127526283264,0.34234049916267395
1761140349174389200,1.52638916015625,-0.42061078548431396,0.5444134473800659,0.17935903370380402
1761140349184449500,1.536449462890625,-0.2416597604751587,0.8085187077522278,-0.06973664462566376
1761140349194508300,1.54650830078125,-0.08220510929822922,0.9945341348648071,-0.35352495312690735
1761140349204568300,1.556568359375,0.056515056639909744,1.0835145711898804,-0.5998607277870178
1761140349214628400,1.56662841796875,0.18367166817188263,1.1465569734573364,-0.7667815685272217
1761140349224687400,1.576687255859375,0.25814011693000793,1.1936776638031006,-0.8609424829483032
1761140349234747400,1.586747314453125,0.263624370098114,1.2202930450439453,-0.8956738710403442
1761140349244807400,1.596807373046875,0.2310381680727005,1.223318099975586,-0.8827946782112122
1761140349254866400,1.606866455078125,0.19942377507686615,1.126168966293335,-0.831773042678833
1761140349264926500,1.616926513671875,0.15918764472007751,0.9350638389587402,-0.7204045653343201
1761140349274986200,1.626986328125,0.11864927411079407,0.7373627424240112,-0.5727285742759705
1761140349285045500,1.63704541015625,0.05851734057068825,0.5639456510543823,-0.41723817586898804
1761140349295105500,1.64710546875,-0.020519953221082687,0.4149194061756134,-0.28334295749664307
1761140349305165300,1.657165283203125,-0.0989442691206932,0.31738582253456116,-0.18616262078285217
1761140349315224300,1.667224365234375,-0.18826882541179657,0.2826097309589386,-0.13222162425518036
1761140349325284600,1.67728466796875,-0.3287128210067749,0.3929259479045868,-0.12357951700687408
1761140349335344400,1.687344482421875,-0.5114906430244446,0.6448644399642944,-0.17582514882087708
1761140349345403400,1.6974033203125,-0.7381432056427002,0.9519308805465698,-0.28895649313926697
1761140349355463200,1.707463134765625,-0.9980307221412659,1.2744405269622803,-0.46013492345809937
1761140349365522400,1.7175224609375,-1.2058535814285278,1.5342851877212524,-0.6910408139228821
1761140349375582500,1.72758251953125,-1.2817221879959106,1.6347100734710693,-0.9670454859733582
1761140349385642200,1.737642333984375,-1.1820385456085205,1.524694561958313,-1.1909916400909424
1761140349395701500,1.747701416015625,-1.0026473999023438,1.1481214761734009,-1.4518892765045166
1761140349405761500,1.757761474609375,-0.7675307989120483,0.5288076996803284,-1.7171568870544434
1761140349415821300,1.7678212890625,-0.5112444162368774,-0.1169351115822792,-1.8905925750732422
1761140349425880300,1.77788037109375,-0.2834714353084564,-0.6246872544288635,-1.8579978942871094
1761140349435940400,1.7879404296875,-0.12110862135887146,-0.9924671649932861,-1.670802116394043
1761140349446000400,1.79800048828125,-0.08135959506034851,-1.2158148288726807,-1.4387691020965576
1761140349456059400,1.808059326171875,-0.07515762746334076,-1.3088209629058838,-1.2224946022033691
1761140349466119200,1.818119140625,-0.03774753212928772,-1.2097632884979248,-0.9697578549385071
1761140349476179500,1.828179443359375,-0.027176644653081894,-1.020133137702942,-0.6114423274993896
1761140349486238500,1.838238525390625,-0.10671423375606537,-0.769231915473938,-0.17805424332618713
1761140349496298200,1.84829833984375,-0.20995433628559113,-0.5848615765571594,0.2853882312774658
1761140349506358300,1.858358154296875,-0.2447023093700409,-0.5322806239128113,0.6941676139831543
1761140349516417300,1.868417236328125,-0.23302967846393585,-0.5528324842453003,1.0357931852340698
1761140349526477300,1.878477294921875,-0.22927218675613403,-0.5891163945198059,1.281221628189087
1761140349536537300,1.888537353515625,-0.25237271189689636,-0.652851402759552,1.3815016746520996
1761140349546596400,1.898596435546875,-0.2735854983329773,-0.7380838990211487,1.3432972431182861
1761140349556656400,1.908656494140625,-0.2578483521938324,-0.7561787366867065,1.2101980447769165
1761140349566716400,1.91871630859375,-0.22536621987819672,-0.67374187707901,1.0443394184112549
1761140349576775400,1.928775390625,-0.1886920928955078,-0.5372884273529053,0.8617797493934631
1761140349586835500,1.93883544921875,-0.14904269576072693,-0.38555338978767395,0.6860536336898804
1761140349596895500,1.9488955078125,-0.11256272345781326,-0.22841888666152954,0.5225675106048584
1761140349606954200,1.958954345703125,-0.06529667973518372,-0.03987344354391098,0.37810206413269043
1761140349617014500,1.9690146484375,-0.028688868507742882,0.1634695678949356,0.2479158192873001
1761140349627073300,1.9790732421875,-0.022012315690517426,0.3530178666114807,0.1542811095714569
1761140349637133300,1.98913330078125,0.009578101336956024,0.4864313304424286,0.10319794714450836
1761140349647193300,1.999193359375,0.10468997061252594,0.5411070585250854,0.05966687202453613
1761140349657252400,2.00925244140625,0.20608824491500854,0.525894284248352,-0.004229020327329636
1761140349667312400,2.0193125,0.2693347632884979,0.4551795423030853,-0.07773030549287796
1761140349677372400,2.029372314453125,0.26271387934684753,0.37568020820617676,-0.13097089529037476
1761140349687431400,2.039431396484375,0.20857734978199005,0.3144727647304535,-0.16691777110099792
1761140349697491500,2.049491455078125,0.13505865633487701,0.26506102085113525,-0.2054760754108429
1761140349707551500,2.059551513671875,0.010695774108171463,0.24162346124649048,-0.23584063351154327
1761140349717610200,2.0696103515625,-0.14147219061851501,0.2789604365825653,-0.2539410889148712
1761140349727670500,2.07967041015625,-0.260763019323349,0.3138121962547302,-0.2601517140865326
1761140349737731000,2.08973095703125,-0.34156331419944763,0.34679490327835083,-0.24801380932331085
1761140349747789800,2.099789794921875,-0.3234459161758423,0.36447927355766296,-0.2028675526380539
1761140349757849900,2.109849853515625,-0.18978984653949738,0.36251863837242126,-0.14573343098163605
1761140349767910000,2.119909912109375,-0.015076404437422752,0.33967289328575134,-0.08054732531309128
1761140349777969000,2.129968994140625,0.11493885517120361,0.2796471118927002,-0.02581004612147808
1761140349788029000,2.14002880859375,0.1703265905380249,0.1993623673915863,-0.013443013653159142
1761140349798088700,2.150088623046875,0.1540735810995102,0.0834653228521347,-0.017117910087108612
1761140349808148000,2.16014794921875,0.09744936972856522,-0.05355307459831238,-0.0009364461293444037
1761140349818208000,2.1702080078125,0.044607192277908325,-0.16854090988636017,0.054594188928604126
1761140349828266800,2.180266845703125,-0.013806180097162724,-0.23266786336898804,0.147828608751297
1761140349838327000,2.1903271484375,-0.06770269572734833,-0.2547004520893097,0.2409825176000595
1761140349848386800,2.20038671875,-0.10249577462673187,-0.2682719826698303,0.3053942322731018
1761140349858445800,2.21044580078125,-0.11064425110816956,-0.29546257853507996,0.336876779794693
1761140349868505900,2.220505859375,-0.11170465499162674,-0.3162320852279663,0.3377816677093506
1761140349878566000,2.23056591796875,-0.10511359572410583,-0.2993108928203583,0.305167019367218
1761140349888625000,2.240625,-0.11615878343582153,-0.27112913131713867,0.24695047736167908
1761140349898685000,2.250684814453125,-0.1489417552947998,-0.24750341475009918,0.19066137075424194
1761140349908744700,2.26074462890625,-0.18444356322288513,-0.21142427623271942,0.14566023647785187
1761140349918804000,2.270803955078125,-0.2102956622838974,-0.16765202581882477,0.1316613256931305
1761140349928863700,2.28086376953125,-0.2196970134973526,-0.11511756479740143,0.13140612840652466
1761140349938923800,2.290923828125,-0.19844099879264832,-0.058417800813913345,0.1464708298444748
1761140349948983000,2.300983154296875,-0.15695986151695251,0.003750501200556755,0.160129114985466
1761140349959042800,2.311042724609375,-0.12232758849859238,0.06419893354177475,0.17409072816371918
1761140349969102800,2.321102783203125,-0.10391730070114136,0.11628389358520508,0.18834586441516876
1761140349979161900,2.331161865234375,-0.08284157514572144,0.15965214371681213,0.20460739731788635
1761140349989222000,2.341221923828125,-0.0709204450249672,0.19459562003612518,0.215504989027977
1761140349999282000,2.351281982421875,-0.06582262367010117,0.22370636463165283,0.20590989291667938
1761140350009340700,2.361340576171875,-0.06463086605072021,0.214023157954216,0.16563287377357483
1761140350019401000,2.37140087890625,-0.06910151243209839,0.2163664698600769,0.10683800280094147
1761140350029460000,2.3814599609375,-0.06767559051513672,0.2189725786447525,0.03748632222414017
1761140350039519700,2.391519775390625,-0.05081645026803017,0.18626336753368378,-0.03951258957386017
1761140350049579800,2.401579833984375,-0.026498926803469658,0.14665557444095612,-0.11065889894962311
1761140350059639000,2.41163916015625,0.009565867483615875,0.11330986022949219,-0.169784277677536
1761140350069698800,2.42169873046875,0.04855766147375107,0.06091230362653732,-0.19837865233421326
1761140350079758800,2.4317587890625,0.059296056628227234,0.013684606179594994,-0.19696025550365448
1761140350089817900,2.44181787109375,0.047321319580078125,-0.013531573116779327,-0.15352138876914978
1761140350099878000,2.4518779296875,0.030873633921146393,-0.028241010382771492,-0.09288628399372101
1761140350109938000,2.46193798828125,0.045554693788290024,-0.03997896611690521,-0.025885647162795067
1761140350119996700,2.47199658203125,0.07973423600196838,-0.03532349690794945,0.032609619200229645
1761140350130057000,2.482056884765625,0.11353853344917297,-0.035322122275829315,0.07205620408058167
1761140350140117000,2.492116943359375,0.12536722421646118,-0.054584234952926636,0.09232285618782043
1761140350150175700,2.50217578125,0.12979646027088165,-0.0801839828491211,0.0927901640534401
1761140350160235800,2.51223583984375,0.13423514366149902,-0.11174244433641434,0.0908881351351738
1761140350170296000,2.522296142578125,0.10192954540252686,-0.12310151010751724,0.12108632922172546
1761140350180354800,2.532354736328125,0.07398925721645355,-0.17924652993679047,0.13437789678573608
1761140350190414800,2.542414794921875,0.04928051307797432,-0.14598716795444489,0.11531655490398407
1761140350200473900,2.552473876953125,0.01818091794848442,-0.11599385738372803,0.0657801553606987
1761140350210534000,2.562533935546875,-0.0038144593127071857,-0.10367082059383392,0.025058867409825325
1761140350220594000,2.572593994140625,0.0025941715575754642,-0.09712157398462296,0.0007782948669046164
1761140350230653000,2.58265283203125,0.010084763169288635,-0.05932559445500374,-0.014332225546240807
1761140350240713000,2.592712890625,-0.013089265674352646,0.0030680117197334766,-0.042367588728666306
1761140350250773000,2.60277294921875,-0.05225161090493202,0.035638634115457535,-0.07781598716974258
1761140350260831700,2.612831787109375,-0.08951829373836517,0.04349283128976822,-0.10420072078704834
1761140350270892000,2.62289208984375,-0.10626824200153351,0.03163377568125725,-0.1153724193572998
1761140350280952000,2.6329521484375,-0.11101612448692322,0.008016595616936684,-0.10805991291999817
1761140350291010800,2.6430107421875,-0.11809249222278595,-0.02223491296172142,-0.08762388676404953
1761140350301070800,2.65307080078125,-0.14443595707416534,-0.0395534485578537,-0.06005564332008362
1761140350311131000,2.663130859375,-0.19055825471878052,-0.030270639806985855,-0.03434400632977486
1761140350321190000,2.67318994140625,-0.24691206216812134,0.019253769889473915,-0.01661108061671257
1761140350331250000,2.68325,-0.2933536469936371,0.09210637956857681,-0.017005672678351402
1761140350341309700,2.693309814453125,-0.31834715604782104,0.158749058842659,-0.034533798694610596
1761140350351369000,2.703368896484375,-0.30214986205101013,0.19896388053894043,-0.06555595993995667
1761140350361429000,2.713428955078125,-0.25187498331069946,0.2066604048013687,-0.10039250552654266
1761140350371488800,2.72348876953125,-0.17414964735507965,0.21025589108467102,-0.1274455040693283
1761140350381548000,2.733548095703125,-0.10450346022844315,0.209750697016716,-0.1347406953573227
1761140350391607800,2.74360791015625,-0.023323357105255127,0.19263070821762085,-0.12252748757600784
1761140350401666800,2.753666748046875,0.06325095146894455,0.16916507482528687,-0.09892655164003372
1761140350411726800,2.763726806640625,0.13545136153697968,0.15741798281669617,-0.06742982566356659
1761140350421787000,2.773786865234375,0.17381899058818817,0.1460995376110077,-0.026553500443696976
1761140350431846000,2.783845947265625,0.18709856271743774,0.14448322355747223,0.02098648063838482
1761140350441906000,2.793906005859375,0.19094976782798767,0.1304137408733368,0.05828085541725159
1761140350451965700,2.803965576171875,0.18169783055782318,0.11249744892120361,0.08383636176586151
1761140350462025000,2.81402490234375,0.16950374841690063,0.09744499623775482,0.10251977294683456
1761140350472084700,2.824084716796875,0.15131500363349915,0.0914064273238182,0.11103088408708572
1761140350482144800,2.834144775390625,0.12179813534021378,0.08086270838975906,0.11424212157726288
1761140350492204000,2.8442041015625,0.09133490920066833,0.07048821449279785,0.10863704979419708
1761140350502263800,2.854263916015625,0.0641389712691307,0.05929867550730705,0.08568885922431946
1761140350512323800,2.86432373046875,0.040265005081892014,0.03284657746553421,0.043742138892412186
1761140350522382800,2.8743828125,0.018327482044696808,0.00018716882914304733,-0.01496778056025505
1761140350532443000,2.88444287109375,0.007358067203313112,-0.03666957840323448,-0.07124999165534973
1761140350542502000,2.894501953125,-0.012735482305288315,-0.028079017996788025,-0.14410102367401123
1761140350552561700,2.904561767578125,-0.05037688463926315,0.000020341482013463974,-0.21126893162727356
1761140350562622000,2.9146220703125,-0.094090536236763,0.029464516788721085,-0.2669103443622589
1761140350572681000,2.924680908203125,-0.11298680305480957,0.050840701907873154,-0.3036355674266815
1761140350582740700,2.93474072265625,-0.10794384032487869,0.06912809610366821,-0.31462857127189636
1761140350592800800,2.94480078125,-0.08470959961414337,0.09019170701503754,-0.30230215191841125
1761140350602860000,2.954860107421875,-0.055431608110666275,0.10496160387992859,-0.2739693224430084
1761140350612919800,2.964919921875,-0.0358315072953701,0.10768239945173264,-0.2395627796649933
1761140350622979800,2.974979736328125,-0.02029275894165039,0.1032881811261177,-0.1950584203004837
1761140350633038800,2.985038818359375,-0.002789271529763937,0.09666505455970764,-0.13333337008953094
1761140350643099000,2.995098876953125,0.008908397518098354,0.08822230249643326,-0.07268865406513214
1761140350653159000,3.005158935546875,0.023418324068188667,0.07073378562927246,-0.02433125674724579
1761140350663217700,3.0152177734375,0.05154716596007347,0.060171160846948624,0.010226454585790634
1761140350673278000,3.02527783203125,0.09943664073944092,0.054410286247730255,0.02782963216304779
1761140350683337000,3.0353369140625,0.142057865858078,0.052745550870895386,0.035492878407239914
1761140350693396700,3.045396728515625,0.1666082888841629,0.058476388454437256,0.04207415133714676
1761140350703456800,3.055456787109375,0.17225471138954163,0.06848454475402832,0.047157593071460724
1761140350713515800,3.065515869140625,0.16567137837409973,0.08280250430107117,0.04329840466380119
1761140350723575800,3.075575927734375,0.14618556201457977,0.09371933341026306,0.04099663347005844
1761140350733635000,3.085635009765625,0.1394193470478058,0.08343704044818878,0.029763804748654366
1761140350743694300,3.0956943359375,0.15050821006298065,0.056297823786735535,0.015303106978535652
1761140350753754000,3.105754150390625,0.16260729730129242,0.04335450008511543,0.015152491629123688
1761140350763814100,3.115814208984375,0.16541613638401031,0.028789140284061432,0.01901700347661972
1761140350773873400,3.125873291015625,0.16645130515098572,0.007270717993378639,0.027778856456279755
1761140350783933200,3.13593310546875,0.15675820410251617,-0.01147340890020132,0.03248705714941025
1761140350793993200,3.1459931640625,0.13892239332199097,-0.00461182463914156,0.04313750937581062
1761140350804052500,3.156052490234375,0.10630984604358673,0.029081422835588455,0.04547097161412239
1761140350814112300,3.1661123046875,0.07192069292068481,0.07425461709499359,0.026871223002672195
1761140350824171300,3.176171142578125,0.06442628800868988,0.11070024222135544,-0.010463099926710129
1761140350834231000,3.18623095703125,0.06604074686765671,0.12842440605163574,-0.04888647794723511
1761140350844291300,3.196291259765625,0.07457644492387772,0.13507351279258728,-0.07365947216749191
1761140350854350300,3.206350341796875,0.09857066720724106,0.11899393796920776,-0.08302497118711472
1761140350864410000,3.21641015625,0.1270206868648529,0.08265803754329681,-0.08232828229665756
1761140350874470100,3.22647021484375,0.13698381185531616,0.03323144465684891,-0.07169540226459503
1761140350884529400,3.236529296875,0.11817604303359985,-0.039472851902246475,-0.048192739486694336
1761140350894589200,3.246589111328125,0.08732637763023376,-0.12412020564079285,-0.007067751605063677
1761140350904649200,3.256649169921875,0.05071616545319557,-0.2155260145664215,0.037603046745061874
1761140350914708200,3.266708251953125,0.01236804574728012,-0.3060991168022156,0.0755879357457161
1761140350924768300,3.276768310546875,-0.02693062461912632,-0.36728498339653015,0.1088380366563797
1761140350934828300,3.286828369140625,-0.06057153642177582,-0.3870561718940735,0.14105224609375
1761140350944887000,3.296886962890625,-0.08851901441812515,-0.37888720631599426,0.1558154672384262
1761140350954947300,3.306947265625,-0.13449321687221527,-0.3815538287162781,0.14330829679965973
1761140350965006300,3.31700634765625,-0.2098582684993744,-0.4016987979412079,0.10378512740135193
1761140350975066000,3.327066162109375,-0.31716880202293396,-0.4351501166820526,0.035073231905698776
1761140350985126100,3.337126220703125,-0.4457123875617981,-0.46675917506217957,-0.01744350790977478
1761140350995185200,3.34718505859375,-0.5692833065986633,-0.48924124240875244,-0.0423990823328495
1761140351005245200,3.3572451171875,-0.6512327790260315,-0.39548227190971375,-0.07122273743152618
1761140351015305200,3.36730517578125,-0.7093858122825623,-0.19139619171619415,-0.1333300620317459
1761140351025364200,3.3773642578125,-0.7791401147842407,0.13806745409965515,-0.24595673382282257
1761140351035424300,3.38742431640625,-0.8817254304885864,0.5917123556137085,-0.4187079966068268
1761140351045484300,3.397484375,-1.0118943452835083,1.1601722240447998,-0.6473539471626282
1761140351055543300,3.407543212890625,-1.206742286682129,1.8334051370620728,-0.9468033909797668
1761140351065603300,3.417603271484375,-1.4508252143859863,2.584662675857544,-1.308356761932373
1761140351075663400,3.427663330078125,-1.6315481662750244,3.3609559535980225,-1.7210184335708618
1761140351085722000,3.43772216796875,-1.729997992515564,4.1358513832092285,-2.1092374324798584
1761140351095782400,3.447782470703125,-1.8627080917358398,4.9208784103393555,-2.358290672302246
1761140351105841200,3.457841064453125,-2.007535219192505,5.627101421356201,-2.4326069355010986
1761140351115901200,3.467901123046875,-2.112020492553711,6.150655746459961,-2.342771053314209
1761140351125961200,3.477961181640625,-2.16241455078125,6.478528022766113,-2.031418800354004
1761140351136020200,3.488020263671875,-2.1138668060302734,6.607065200805664,-1.5093510150909424
1761140351146080300,3.498080322265625,-2.0642306804656982,6.704362869262695,-0.8518590927124023
1761140351156140300,3.508140380859375,-2.0946898460388184,6.740278720855713,-0.052938587963581085
1761140351166199300,3.51819921875,-2.1871824264526367,6.708606243133545,0.6942341923713684
1761140351176259300,3.52825927734375,-2.319053888320923,6.636838436126709,1.1877460479736328
1761140351186319400,3.5383193359375,-2.471315383911133,6.437625408172607,1.522695541381836
1761140351196378000,3.548378173828125,-2.6028592586517334,6.15143346786499,1.7850364446640015
1761140351206438400,3.5584384765625,-2.7132983207702637,5.824558734893799,2.0154738426208496
1761140351216497200,3.5684970703125,-2.805091142654419,5.5281805992126465,2.2229244709014893
1761140351226557200,3.57855712890625,-2.8303539752960205,5.272621154785156,2.3745312690734863
1761140351236617200,3.5886171875,-2.8053815364837646,4.962254524230957,2.4570460319519043
1761140351246676200,3.59867626953125,-2.7959604263305664,4.561641216278076,2.4471004009246826
1761140351256736300,3.608736328125,-2.794696092605591,4.253393173217773,2.3788187503814697
1761140351266796300,3.61879638671875,-2.796611785888672,4.121351718902588,2.3097596168518066
1761140351276855300,3.628855224609375,-2.829231023788452,4.213679790496826,2.268437385559082
1761140351286915300,3.638915283203125,-2.877484083175659,4.370813846588135,2.251894474029541
1761140351296975000,3.64897509765625,-2.9073984622955322,4.451507568359375,2.1557955741882324
1761140351307034400,3.659034423828125,-2.918835163116455,4.432216644287109,1.9897146224975586
1761140351317094400,3.669094482421875,-2.9134552478790283,4.283872604370117,1.8522878885269165
1761140351327154200,3.679154296875,-2.8670215606689453,4.052229404449463,1.7796051502227783
1761140351337213200,3.689213134765625,-2.8069961071014404,3.9538819789886475,1.7826000452041626
1761140351347273500,3.6992734375,-2.724264144897461,3.9930403232574463,1.8115111589431763
1761140351357332200,3.709332275390625,-2.570077657699585,4.098577976226807,1.8246657848358154
1761140351367392300,3.719392333984375,-2.369924545288086,4.1419548988342285,1.7921279668807983
1761140351377452000,3.7294521484375,-2.202357530593872,3.972883701324463,1.7386149168014526
1761140351387511300,3.73951123046875,-2.0840392112731934,3.7278056144714355,1.7284096479415894
1761140351397571300,3.7495712890625,-1.9964599609375,3.525442361831665,1.8253133296966553
1761140351407631000,3.759631103515625,-1.9316226243972778,3.421205520629883,1.96529221534729
1761140351417690400,3.7696904296875,-1.8638700246810913,3.294494152069092,2.0927228927612305
1761140351427750400,3.77975048828125,-1.8194985389709473,3.0340166091918945,2.180166482925415
1761140351437810200,3.78981005859375,-1.7794740200042725,2.492635726928711,2.056988000869751
1761140351447869200,3.799869140625,-1.7352756261825562,1.9686729907989502,1.7793972492218018
1761140351457929200,3.80992919921875,-1.680477261543274,1.8788447380065918,1.6014043092727661
1761140351467988200,3.81998828125,-1.5759732723236084,1.6680281162261963,1.484027624130249
1761140351478048300,3.83004833984375,-1.388617753982544,1.6134110689163208,1.3934718370437622
1761140351488108000,3.84010791015625,-1.1711573600769043,1.8360538482666016,1.431024193763733
1761140351498167300,3.850167236328125,-0.9609225392341614,1.9476637840270996,1.4872028827667236
1761140351508227300,3.860227294921875,-0.7473450303077698,1.6564993858337402,1.4955140352249146
1761140351518287000,3.870287109375,-0.47935977578163147,1.1667627096176147,1.5353217124938965
1761140351528346400,3.880346435546875,-0.11911983788013458,0.83830726146698,1.7251161336898804
1761140351538406100,3.89040625,0.24787406623363495,0.6932300925254822,1.9989349842071533
1761140351548466200,3.900466064453125,0.5232020616531372,0.5301753878593445,2.2696104049682617
1761140351558525400,3.910525390625,0.6072220206260681,0.2871290147304535,2.4210307598114014
1761140351568585200,3.920585205078125,0.5155631899833679,0.03633300960063934,2.422952175140381
1761140351578644200,3.930644287109375,0.3647657632827759,-0.050602514296770096,2.302220344543457
1761140351588704300,3.940704345703125,0.24358926713466644,-0.08909478038549423,2.060936689376831
1761140351598764300,3.950764404296875,0.1994539350271225,-0.15409144759178162,1.7216264009475708
1761140351608823300,3.9608232421875,0.3773248791694641,-0.24691513180732727,1.345105767250061
1761140351618883000,3.970883056640625,0.6795933842658997,-0.18376705050468445,1.0213825702667236
1761140351628943000,3.980943115234375,0.9787207841873169,-0.09990715235471725,0.8181049823760986
1761140351639002400,3.99100244140625,1.180212140083313,-0.17159748077392578,0.7123928070068359
1761140351649062100,4.001062255859375,1.2224698066711426,-0.34379640221595764,0.6850535869598389
1761140351659122200,4.0111220703125,1.1846152544021606,-0.40532079339027405,0.749915361404419
1761140351669181400,4.021181396484375,1.1157158613204956,-0.05791250616312027,0.7910942435264587
1761140351679241200,4.0312412109375,0.9229019284248352,-0.142238587141037,0.5855123996734619
1761140351689300200,4.04130029296875,0.7551882863044739,-0.5009682774543762,0.22323057055473328
1761140351699360300,4.0513603515625,0.6682231426239014,-0.6913822889328003,-0.20016233623027802
1761140351709420300,4.061420166015625,0.6755359172821045,-0.595472514629364,-0.6017147898674011
1761140351719479300,4.071479248046875,0.7725861668586731,-0.32530608773231506,-0.9030343294143677
1761140351729539000,4.0815390625,0.9092339873313904,-0.06670410186052322,-1.1270811557769775
1761140351739599000,4.09159912109375,1.0325400829315186,0.1607712060213089,-1.2858093976974487
1761140351749658000,4.101658203125,1.0974267721176147,0.43213507533073425,-1.327050805091858
1761140351759718100,4.11171826171875,1.096657395362854,0.6042436957359314,-1.2226022481918335
1761140351769778200,4.121778076171875,1.0824520587921143,0.6582949161529541,-1.054957389831543
1761140351779837200,4.131837158203125,1.034852147102356,0.5722063183784485,-0.8628056645393372
1761140351789897200,4.141897216796875,0.9289312958717346,0.4528578519821167,-0.6651535630226135
1761140351799956000,4.1519560546875,0.7728478312492371,0.3490654528141022,-0.4781135022640228
1761140351810016300,4.162016357421875,0.5788618326187134,0.22227953374385834,-0.30252569913864136
1761140351820076300,4.172076171875,0.3918463885784149,0.038408584892749786,-0.13760925829410553
1761140351830135000,4.182135009765625,0.2766217887401581,-0.1799333393573761,-0.014589588157832623
1761140351840195000,4.192195068359375,0.21666423976421356,-0.3240290582180023,0.08292707800865173
1761140351850255400,4.20225537109375,0.1728682816028595,-0.3750959634780884,0.12570995092391968
1761140351860314000,4.212314208984375,0.2148858606815338,-0.35332104563713074,0.09075118601322174
1761140351870374100,4.2223740234375,0.32465097308158875,-0.32972410321235657,0.003912429790943861
1761140351880434200,4.23243408203125,0.4579579830169678,-0.356860488653183,-0.10245740413665771
1761140351890493200,4.2424931640625,0.541787326335907,-0.41319459676742554,-0.21260175108909607
1761140351900553200,4.25255322265625,0.5423091650009155,-0.42489802837371826,-0.3068470060825348
1761140351910612200,4.2626123046875,0.48716574907302856,-0.2346085011959076,-0.32720527052879333
1761140351920672300,4.27267236328125,0.396292120218277,0.144523486495018,-0.2774057388305664
1761140351930732300,4.282732177734375,0.30427297949790955,0.6360740065574646,-0.1732551008462906
1761140351940791000,4.292791015625,0.2255716472864151,1.0317686796188354,-0.0609060600399971
1761140351950851300,4.302851318359375,0.17742542922496796,1.212639570236206,0.0610017366707325
1761140351960911400,4.312911376953125,0.143215611577034,1.2050296068191528,0.17354293167591095
1761140351970970000,4.32297021484375,0.13069315254688263,1.0365593433380127,0.285556823015213
1761140351981030100,4.333030029296875,0.16092684864997864,0.7615479230880737,0.3995459973812103
1761140351991089200,4.343089111328125,0.2032463401556015,0.4506361782550812,0.4980555474758148
1761140352001149200,4.353149169921875,0.23211735486984253,0.19288955628871918,0.5706073045730591
1761140352011209200,4.363209228515625,0.24975387752056122,0.06159518286585808,0.6143772006034851
1761140352021268200,4.373268310546875,0.24697820842266083,0.014528455212712288,0.6020127534866333
1761140352031328300,4.383328369140625,0.20341022312641144,0.026843978092074394,0.4933728277683258
1761140352041388300,4.39338818359375,0.1281362920999527,0.0923103541135788,0.2906704843044281
1761140352051447000,4.403447021484375,0.08109766989946365,0.21972237527370453,0.062041301280260086
1761140352061507300,4.41350732421875,0.07638248801231384,0.388229101896286,-0.14052465558052063
1761140352071567000,4.423567138671875,0.11839146167039871,0.5162355303764343,-0.2790529727935791
1761140352081626000,4.433626220703125,0.18126066029071808,0.5441619753837585,-0.33381733298301697
1761140352091686100,4.44368603515625,0.22262194752693176,0.46468231081962585,-0.31828176975250244
1761140352101745200,4.4537451171875,0.2281349003314972,0.32663822174072266,-0.2645016014575958
1761140352111805200,4.46380517578125,0.19935783743858337,0.19492466747760773,-0.1948695182800293
1761140352121865200,4.473865234375,0.1326204091310501,0.11062898486852646,-0.14007560908794403
1761140352131924200,4.48392431640625,0.043093178421258926,0.06339302659034729,-0.11380086094141006
1761140352141984300,4.493984375,-0.022935952991247177,0.03398611396551132,-0.08069980889558792
1761140352152044000,4.5040439453125,-0.055191896855831146,0.049002617597579956,-0.0055451346561312675
1761140352162103300,4.514103271484375,-0.07000692188739777,0.08522118628025055,0.0713593140244484
1761140352172163300,4.524163330078125,-0.07161813229322433,0.09641844034194946,0.1407889872789383
1761140352182223000,4.53422314453125,-0.0654844120144844,0.09600549191236496,0.18513448536396027
1761140352192282000,4.5442822265625,-0.05033528804779053,0.10556144267320633,0.21152667701244354
1761140352202342100,4.554342041015625,-0.013631701469421387,0.15437978506088257,0.21416102349758148
1761140352212401200,4.564401123046875,0.02703743241727352,0.18730738759040833,0.18721967935562134
1761140352222461200,4.574461181640625,0.04706024006009102,0.1930457502603531,0.12157230079174042
1761140352232521000,4.58452099609375,0.04467830806970596,0.17027464509010315,0.04018023610115051
1761140352242580200,4.594580322265625,0.005513153504580259,0.10470426082611084,-0.021477896720170975
1761140352252640300,4.60464013671875,-0.054084666073322296,0.0014649564400315285,-0.07065795361995697
1761140352262700000,4.614699951171875,-0.10957866162061691,-0.10022568702697754,-0.10130120813846588
1761140352272759300,4.62475927734375,-0.1431499421596527,-0.14617027342319489,-0.10569595545530319
1761140352282819300,4.6348193359375,-0.15254177153110504,-0.14797653257846832,-0.07826394587755203
1761140352292878000,4.644878173828125,-0.1265527755022049,-0.0830654427409172,-0.014612797647714615
1761140352302938000,4.654938232421875,-0.07379109412431717,0.0174910519272089,0.07311416417360306
1761140352312998100,4.664998046875,-0.013305116444826126,0.09345372766256332,0.14814099669456482
1761140352323057200,4.67505712890625,0.029710892587900162,0.09411504119634628,0.18172752857208252
1761140352333117200,4.6851171875,0.04864010959863663,0.07635042071342468,0.1512841284275055
1761140352343177000,4.695177001953125,0.06555137038230896,0.04578758776187897,0.06888378411531448
1761140352353236200,4.705236328125,0.06049641966819763,0.03228136897087097,-0.00163538777269423
1761140352363296300,4.715296142578125,0.0441005565226078,0.044899459928274155,-0.025917956605553627
1761140352373356000,4.72535595703125,0.042913854122161865,0.05400826781988144,-0.010519825853407383
1761140352383415300,4.735415283203125,0.061862364411354065,0.04578328877687454,0.040648579597473145
1761140352393475000,4.74547509765625,0.09223118424415588,0.0007340554147958755,0.11803950369358063
1761140352403534000,4.7555341796875,0.133056640625,-0.0909593403339386,0.18437069654464722
1761140352413594400,4.765594482421875,0.17575830221176147,-0.202520489692688,0.21218261122703552
1761140352423654100,4.775654052734375,0.22012931108474731,-0.2912321388721466,0.19005948305130005
1761140352433713200,4.785713134765625,0.26982760429382324,-0.2869209945201874,0.1439087688922882
1761140352443773200,4.795773193359375,0.3289911150932312,-0.1863613724708557,0.09217427670955658
1761140352453833200,4.805833251953125,0.3348921537399292,-0.15016688406467438,0.018925892189145088
1761140352463892200,4.815892333984375,0.3120897710323334,-0.15130284428596497,-0.034662045538425446
1761140352473952000,4.825951904296875,0.25623050332069397,-0.1335669904947281,-0.06864611059427261
1761140352484011300,4.83601123046875,0.1734095811843872,-0.1065259501338005,-0.08325953036546707
1761140352494071300,4.8460712890625,0.09265002608299255,-0.0871858075261116,-0.08063711225986481
1761140352504131000,4.856131103515625,0.0303297471255064,-0.08187831193208694,-0.0693826898932457
1761140352514190000,4.866190185546875,0.009237511083483696,-0.08467196673154831,-0.0691874772310257
1761140352524250400,4.87625048828125,0.019164646044373512,-0.10678626596927643,-0.08944424241781235
1761140352534310100,4.88631005859375,0.03191905841231346,-0.14799335598945618,-0.13521838188171387
1761140352544369200,4.896369140625,0.033819571137428284,-0.16884204745292664,-0.18400801718235016
1761140352554429000,4.906428955078125,0.048086389899253845,-0.14829708635807037,-0.19493257999420166
1761140352564488200,4.91648828125,0.05729253962635994,-0.08403676748275757,-0.1897909939289093
1761140352574548200,4.92654833984375,0.0558730773627758,-0.010141769424080849,-0.19177664816379547
1761140352584608000,4.93660791015625,0.03809218108654022,0.04259004816412926,-0.19466069340705872
1761140352594667300,4.946667236328125,0.011029140092432499,0.06622986495494843,-0.20507363975048065
1761140352604727300,4.956727294921875,-0.03994744271039963,0.06471375375986099,-0.20429663360118866
1761140352614787000,4.966787109375,-0.09630819410085678,0.05843854323029518,-0.18201902508735657
1761140352624846300,4.976846435546875,-0.130867138504982,0.07369823753833771,-0.14569289982318878
1761140352634906000,4.986906005859375,-0.12111729383468628,0.08715465664863586,-0.12393594533205032
1761140352644966100,4.996966064453125,-0.10070302337408066,0.08287215232849121,-0.15839137136936188
1761140352655025200,5.007025146484375,-0.09695062786340714,0.08026093244552612,-0.2353775054216385
1761140352665085200,5.017085205078125,-0.11230389028787613,0.08656291663646698,-0.3150995969772339
1761140352675144200,5.027144287109375,-0.12490170449018478,0.0982012003660202,-0.3805888593196869
1761140352685204200,5.037204345703125,-0.12148649990558624,0.12835921347141266,-0.40275588631629944
1761140352695264000,5.047263916015625,-0.10735683143138885,0.15761856734752655,-0.3617922067642212
1761140352705323300,5.0573232421875,-0.07829120010137558,0.17526285350322723,-0.2531566619873047
1761140352715383000,5.067383056640625,-0.042635999619960785,0.1769116073846817,-0.11721161007881165
1761140352725443000,5.077443115234375,-0.005401602014899254,0.1319878250360489,0.014820391312241554
1761140352735502600,5.087502685546875,0.026002660393714905,0.06459040939807892,0.12084030359983444
1761140352745562600,5.097562744140625,0.040084704756736755,-0.008539168164134026,0.16096524894237518
1761140352755621400,5.107621337890625,0.03565693274140358,-0.04670173302292824,0.14580893516540527
1761140352765681400,5.117681396484375,0.007563439197838306,-0.04757701978087425,0.0901799127459526
1761140352775741700,5.12774169921875,-0.02192867361009121,-0.0019978152122348547,0.03147345781326294
1761140352785800400,5.137800537109375,-0.060108888894319534,0.07637511193752289,-0.03092133067548275
1761140352795860500,5.147860595703125,-0.08641532808542252,0.1373351365327835,-0.08797582983970642
1761140352805920500,5.15792041015625,-0.09140556305646896,0.13147830963134766,-0.11602398008108139
1761140352815979500,5.1679794921875,-0.06524665653705597,0.06912918388843536,-0.10145888477563858
1761140352826039600,5.17803955078125,-0.02911308966577053,-0.031177498400211334,-0.05617772415280342
1761140352836098600,5.1880986328125,0.009965868666768074,-0.10461549460887909,0.012357393279671669
1761140352846158600,5.19815869140625,0.05672787129878998,-0.13676375150680542,0.09619547426700592
1761140352856218600,5.208218505859375,0.0870990976691246,-0.12388257682323456,0.164143368601799
1761140352866277400,5.21827734375,0.07718141376972198,-0.05773013457655907,0.18636375665664673
1761140352876337400,5.22833740234375,0.024458017200231552,0.016903623938560486,0.146742582321167
1761140352886397700,5.238397705078125,-0.03272227942943573,0.05151161924004555,0.05980308726429939
1761140352896456400,5.24845654296875,-0.06723897904157639,0.05827604979276657,-0.02368941158056259
1761140352906516500,5.2585166015625,-0.09223136305809021,0.030495576560497284,-0.09774616360664368
1761140352916576500,5.268576416015625,-0.11209002137184143,-0.0033228422980755568,-0.13516303896903992
1761140352926635500,5.278635498046875,-0.11909706890583038,-0.029268650338053703,-0.13745379447937012
1761140352936695600,5.288695556640625,-0.10087066143751144,-0.05320248007774353,-0.08067386597394943
1761140352946754600,5.298754638671875,-0.05951938405632973,-0.04369182884693146,-0.005370458122342825
1761140352956814600,5.308814697265625,-0.013995042070746422,-0.01331954263150692,0.06304268538951874
1761140352966874600,5.31887451171875,0.039079636335372925,0.01721808686852455,0.10458629578351974
1761140352976933400,5.328933349609375,0.07464082539081573,0.05443389713764191,0.1136849895119667
1761140352986993700,5.33899365234375,0.09161512553691864,0.10635511577129364,0.09515590965747833
1761140352997053400,5.349053466796875,0.08930323272943497,0.14074158668518066,0.052201785147190094
1761140353007112400,5.359112548828125,0.06888826191425323,0.11595942080020905,-0.015817800536751747
1761140353017172500,5.36917236328125,0.03108709491789341,0.05054553225636482,-0.09202814847230911
1761140353027231500,5.3792314453125,-0.009204806759953499,-0.0029524287674576044,-0.1495722085237503
1761140353037291500,5.38929150390625,-0.038107290863990784,-0.039683278650045395,-0.1757231205701828
1761140353047351600,5.3993515625,-0.04144016653299332,-0.07764540612697601,-0.15318307280540466
1761140353057410600,5.40941064453125,-0.025655345991253853,-0.07363255321979523,-0.0905415341258049
1761140353067470600,5.419470703125,0.002262644935399294,-0.02894986979663372,0.012418791651725769
1761140353077530400,5.4295302734375,0.03416997939348221,0.03241948038339615,0.10811042785644531
1761140353087589400,5.43958935546875,0.0594654455780983,0.07915651798248291,0.18779796361923218
1761140353097649700,5.449649658203125,0.06205803155899048,0.08101008087396622,0.22760529816150665
1761140353107708400,5.45970849609375,0.02494598925113678,0.04446720331907272,0.222597137093544
1761140353117768400,5.4697685546875,-0.0398431271314621,0.027937496080994606,0.1694023609161377
1761140353127828500,5.479828369140625,-0.08846186101436615,0.05017472058534622,0.08826132118701935
1761140353137887500,5.489887451171875,-0.10883398354053497,0.10542971640825272,0.007919341325759888
1761140353147947500,5.499947509765625,-0.10840681195259094,0.17752522230148315,-0.07672709971666336
1761140353158007300,5.51000732421875,-0.09581431746482849,0.23933106660842896,-0.14679567515850067
1761140353168066600,5.520066650390625,-0.06342397630214691,0.2993410527706146,-0.1811857670545578
1761140353178126600,5.530126708984375,-0.03233397379517555,0.34111353754997253,-0.19622623920440674
1761140353188185300,5.540185302734375,-0.012023641727864742,0.36406973004341125,-0.20915348827838898
1761140353198245600,5.55024560546875,0.0029041748493909836,0.396291047334671,-0.21313278377056122
1761140353208305700,5.5603056640625,0.008793175220489502,0.4396459460258484,-0.2176869660615921
1761140353218364400,5.570364501953125,0.005892194341868162,0.4684637486934662,-0.24983133375644684
1761140353228424400,5.580424560546875,0.011322040110826492,0.4839168190956116,-0.30403876304626465
1761140353238484500,5.590484375,0.025583799928426743,0.4932573139667511,-0.3905739188194275
1761140353248543500,5.60054345703125,0.03298114240169525,0.44095316529273987,-0.5149363875389099
1761140353258603500,5.610603515625,0.02695707231760025,0.3251514732837677,-0.6505584120750427
1761140353268662500,5.62066259765625,0.008828384801745415,0.17166107892990112,-0.7611560225486755
1761140353278722600,5.63072265625,-0.01202469877898693,0.05217915400862694,-0.8025490045547485
1761140353288782600,5.640782470703125,-0.016175677999854088,0.008453067392110825,-0.7545744180679321
1761140353298841600,5.650841552734375,0.00011354696471244097,0.008154259994626045,-0.6523239612579346
1761140353308901600,5.660901611328125,0.040120262652635574,0.01686803437769413,-0.5519482493400574
1761140353318961400,5.67096142578125,0.09721257537603378,0.04509461298584938,-0.48396944999694824
1761140353329020400,5.6810205078125,0.1468546986579895,0.09387893229722977,-0.4859122335910797
1761140353339080400,5.69108056640625,0.18084143102169037,0.1750483512878418,-0.558411717414856
1761140353349139500,5.701139404296875,0.20566114783287048,0.2913263440132141,-0.6879603266716003
1761140353359199500,5.711199462890625,0.2202446162700653,0.3736797869205475,-0.847281813621521
1761140353369259500,5.721259521484375,0.2350151389837265,0.35466334223747253,-1.000976324081421
1761140353379318500,5.731318603515625,0.24371621012687683,0.2553673982620239,-1.116420030593872
1761140353389378600,5.741378662109375,0.24150152504444122,0.15220879018306732,-1.1683930158615112
1761140353399438300,5.751438232421875,0.2423068732023239,0.11692935973405838,-1.129276990890503
1761140353409497600,5.76149755859375,0.25080379843711853,0.13413681089878082,-1.018072247505188
1761140353419557600,5.7715576171875,0.2642138600349426,0.1980830430984497,-0.8988308906555176
1761140353429616400,5.781616455078125,0.2827374339103699,0.2990321218967438,-0.8143408894538879
1761140353439676400,5.791676513671875,0.30913788080215454,0.38651829957962036,-0.7903774976730347
1761140353449736700,5.80173681640625,0.33132535219192505,0.4312165081501007,-0.8070083260536194
1761140353459795500,5.81179541015625,0.3575636148452759,0.4278055429458618,-0.8247396349906921
1761140353469855500,5.82185546875,0.3584562838077545,0.34943798184394836,-0.8202435970306396
1761140353479915300,5.831915283203125,0.34103307127952576,0.2211034595966339,-0.780754804611206
1761140353489974500,5.841974609375,0.31861770153045654,0.11510979384183884,-0.696759819984436
1761140353500034600,5.85203466796875,0.3010821044445038,0.049638643860816956,-0.5991674661636353
1761140353510093600,5.862093505859375,0.3031308054924011,0.003609688486903906,-0.512831449508667
1761140353520153600,5.872153564453125,0.3240757882595062,-0.040678415447473526,-0.4467155635356903
1761140353530213600,5.882213623046875,0.3454621136188507,-0.0964462161064148,-0.3999629616737366
1761140353540272400,5.8922724609375,0.3558633625507355,-0.1585487276315689,-0.37341442704200745
1761140353550332700,5.902332763671875,0.36160069704055786,-0.2143225073814392,-0.348819375038147
1761140353560392400,5.912392333984375,0.34960636496543884,-0.22357699275016785,-0.3337258994579315
1761140353570451500,5.922451416015625,0.320829838514328,-0.18086601793766022,-0.304360568523407
1761140353580511500,5.932511474609375,0.2801487147808075,-0.10684505105018616,-0.2550761103630066
1761140353590570500,5.942570556640625,0.25290971994400024,-0.03967493399977684,-0.181954488158226
1761140353600630500,5.952630615234375,0.2319040447473526,-0.015254279598593712,-0.086887888610363
1761140353610690600,5.962690673828125,0.22717860341072083,-0.024592485278844833,0.03251852095127106
1761140353620749600,5.97274951171875,0.2333800345659256,-0.05939494073390961,0.15826261043548584
1761140353630809600,5.9828095703125,0.23185443878173828,-0.12149202078580856,0.2747056782245636
1761140353640869400,5.992869384765625,0.22799472510814667,-0.21586565673351288,0.3680867552757263
1761140353650928400,6.002928466796875,0.217680886387825,-0.29072949290275574,0.4338699281215668
1761140353660988700,6.01298876953125,0.19797562062740326,-0.32534605264663696,0.4606677293777466
1761140353671047400,6.02304736328125,0.1746053844690323,-0.3116491734981537,0.43230271339416504
1761140353681107500,6.033107421875,0.14440034329891205,-0.2435196489095688,0.3549317717552185
1761140353691167500,6.04316748046875,0.12374359369277954,-0.1376633197069168,0.22301870584487915
1761140353701226500,6.0532265625,0.12890613079071045,0.0007329094223678112,0.06421574205160141
1761140353711286500,6.06328662109375,0.15993894636631012,0.11273205280303955,-0.08684688806533813
1761140353721345500,6.073345458984375,0.1993952840566635,0.16124045848846436,-0.19990099966526031
1761140353731405600,6.083405517578125,0.2223331481218338,0.1566598117351532,-0.24972841143608093
1761140353741465600,6.093465576171875,0.23415811359882355,0.1345212161540985,-0.250095933675766
1761140353751524600,6.103524658203125,0.22723998129367828,0.1096387505531311,-0.2047203779220581
1761140353761584600,6.113584716796875,0.201803058385849,0.08604740351438522,-0.15396158397197723
1761140353771644700,6.123644775390625,0.15308444201946259,0.061346638947725296,-0.10555672645568848
1761140353781703700,6.13370361328125,0.09657777100801468,0.04398017004132271,-0.0724531039595604
1761140353791763500,6.143763427734375,0.029486898332834244,0.0017948164604604244,-0.06776828318834305
1761140353801822700,6.15382275390625,-0.04847287759184837,-0.0626843124628067,-0.07998020946979523
1761140353811882800,6.1638828125,-0.12598887085914612,-0.11002761870622635,-0.07991376519203186
1761140353821942500,6.173942626953125,-0.20166711509227753,-0.1281496286392212,-0.06777108460664749
1761140353832001800,6.184001708984375,-0.2743355333805084,-0.12496621906757355,-0.06556838750839233
1761140353842061600,6.1940615234375,-0.33412402868270874,-0.10619572550058365,-0.05322171002626419
1761140353852121600,6.20412158203125,-0.369601845741272,-0.07356467097997665,-0.03138357400894165
1761140353862180600,6.2141806640625,-0.3638840317726135,-0.0323684960603714,0.009270643815398216
1761140353872240600,6.22424072265625,-0.3294309377670288,-0.0009917616844177246,0.060707323253154755
1761140353882299600,6.234299560546875,-0.2814823091030121,0.012116583995521069,0.0991540476679802
1761140353892359700,6.244359619140625,-0.23201127350330353,0.0071677034720778465,0.10951345413923264
1761140353902419500,6.25441943359375,-0.18600383400917053,-0.006620280910283327,0.09743655472993851
1761140353912478700,6.264478759765625,-0.13761445879936218,-0.020240526646375656,0.06787242740392685
1761140353922538500,6.27453857421875,-0.08007073402404785,-0.010123709216713905,0.02936737798154354
1761140353932598500,6.2845986328125,-0.016857117414474487,0.0013868450187146664,-0.011905375868082047
1761140353942657800,6.29465771484375,0.04178915172815323,0.00562153710052371,-0.0584944486618042
1761140353952717600,6.304717529296875,0.0906902551651001,-0.0056853326968848705,-0.11224094778299332
1761140353962776600,6.314776611328125,0.12350492179393768,-0.027100875973701477,-0.15645262598991394
1761140353972836600,6.324836669921875,0.12324288487434387,-0.07627325505018234,-0.19655540585517883
1761140353982896600,6.334896728515625,0.10486999899148941,-0.13686230778694153,-0.2100866585969925
1761140353992955600,6.34495556640625,0.09313713759183884,-0.15480569005012512,-0.1795671135187149
1761140354003015400,6.355015380859375,0.08944892138242722,-0.15541687607765198,-0.12629109621047974
1761140354013075700,6.36507568359375,0.0959443673491478,-0.16326650977134705,-0.07889312505722046
1761140354023134700,6.375134765625,0.10464491695165634,-0.17821456491947174,-0.04064534232020378
1761140354033194500,6.385194580078125,0.10366997867822647,-0.20701901614665985,-0.010428411886096
1761140354043253800,6.395253662109375,0.08569817245006561,-0.2323901504278183,0.008281892165541649
1761140354053313800,6.405313720703125,0.06838685274124146,-0.2220572531223297,0.02510226145386696
1761140354063373600,6.41537353515625,0.05993717908859253,-0.19493189454078674,0.03155083954334259
1761140354073432600,6.4254326171875,0.0600297674536705,-0.16549445688724518,0.027343135327100754
1761140354083492600,6.43549267578125,0.0700690820813179,-0.13644950091838837,0.009610744193196297
1761140354093551600,6.445551513671875,0.06763707846403122,-0.11102350056171417,-0.024951493367552757
1761140354103611600,6.455611572265625,0.05798419192433357,-0.0948202908039093,-0.08112502098083496
1761140354113671400,6.46567138671875,0.044883884489536285,-0.08769658207893372,-0.13276833295822144
1761140354123730700,6.475730712890625,0.026894230395555496,-0.08618416637182236,-0.16571509838104248
1761140354133790700,6.485790771484375,0.000054369098506867886,-0.06513911485671997,-0.18463829159736633
1761140354143850500,6.4958505859375,-0.025758851319551468,-0.05566944181919098,-0.19202136993408203
1761140354153909800,6.50590966796875,-0.05607779696583748,-0.07875332981348038,-0.20198026299476624
1761140354163969500,6.515969482421875,-0.08236426115036011,-0.12583987414836884,-0.2044559270143509
1761140354174028500,6.526028564453125,-0.10153382271528244,-0.169230118393898,-0.1933629810810089
1761140354184088800,6.5360888671875,-0.12138182669878006,-0.21054667234420776,-0.1621169149875641
1761140354194148600,6.546148681640625,-0.12977345287799835,-0.2260688990354538,-0.1184764876961708
1761140354204207600,6.55620751953125,-0.1320832371711731,-0.21626541018486023,-0.06583426892757416
1761140354214267600,6.566267578125,-0.11447114497423172,-0.18904002010822296,-0.011792749166488647
1761140354224327700,6.57632763671875,-0.0830564945936203,-0.16243690252304077,0.04017564281821251
1761140354234386700,6.58638671875,-0.038573238998651505,-0.13359086215496063,0.09163849800825119
1761140354244446500,6.596446533203125,0.01007205992937088,-0.10542260110378265,0.1348525583744049
1761140354254505700,6.606505615234375,0.05277630686759949,-0.08098587393760681,0.15720035135746002
1761140354264565800,6.616565673828125,0.08892898261547089,-0.05468103289604187,0.15914684534072876
1761140354274625500,6.62662548828125,0.1262252926826477,-0.012682505883276463,0.1391555219888687
1761140354284684500,6.6366845703125,0.15825167298316956,0.028977058827877045,0.09591857343912125
1761140354294744800,6.646744873046875,0.18352827429771423,0.05602244287729263,0.03295217826962471
1761140354304804600,6.6568046875,0.20828209817409515,0.06098258122801781,-0.033741362392902374
1761140354314863600,6.666863525390625,0.22450512647628784,0.037262529134750366,-0.09340626746416092
1761140354324923400,6.67692333984375,0.24267587065696716,-0.012935127131640911,-0.13634148240089417
1761140354334982700,6.686982666015625,0.2559162378311157,-0.046603962779045105,-0.15401652455329895
1761140354345042700,6.697042724609375,0.2618428170681,-0.07265260815620422,-0.1543949544429779
1761140354355102500,6.7071025390625,0.25025442242622375,-0.0911918506026268,-0.15330368280410767
1761140354365161700,6.71716162109375,0.22641754150390625,-0.11265160143375397,-0.1664237380027771
1761140354375221800,6.7272216796875,0.19390276074409485,-0.1475370079278946,-0.20086513459682465
1761140354385280500,6.737280517578125,0.16327401995658875,-0.19638150930404663,-0.23680289089679718
1761140354395340800,6.7473408203125,0.13799820840358734,-0.24869926273822784,-0.2546507716178894
1761140354405400600,6.757400634765625,0.10918308049440384,-0.2798500061035156,-0.25227415561676025
1761140354415459600,6.76745947265625,0.07061422616243362,-0.2948335111141205,-0.22803767025470734
1761140354425519600,6.77751953125,0.04109042137861252,-0.30783718824386597,-0.19267913699150085
1761140354435579600,6.78757958984375,0.030915675684809685,-0.2907800078392029,-0.1268693059682846
1761140354445638700,6.797638671875,0.03932114690542221,-0.23922282457351685,-0.052326902747154236
1761140354455698700,6.80769873046875,0.06407531350851059,-0.16295193135738373,0.03197484090924263
1761140354465757700,6.8177578125,0.09620022773742676,-0.06565093994140625,0.1195363774895668
1761140354475817700,6.827817626953125,0.14552545547485352,0.03462498262524605,0.21173426508903503
1761140354485877500,6.83787744140625,0.1950269639492035,0.11509504914283752,0.2936296761035919
1761140354495936500,6.8479365234375,0.23799948394298553,0.16297325491905212,0.35418084263801575
1761140354505996800,6.857996826171875,0.2717103064060211,0.17939935624599457,0.40127167105674744
1761140354516055600,6.8680556640625,0.29785430431365967,0.1817464977502823,0.42706209421157837
1761140354526115600,6.878115478515625,0.32535359263420105,0.20565396547317505,0.43559592962265015
1761140354536175600,6.888175537109375,0.35498109459877014,0.24354508519172668,0.4498326778411865
1761140354546234600,6.898234619140625,0.4025163948535919,0.2772303521633148,0.4805000424385071
1761140354556294700,6.908294677734375,0.4762260317802429,0.2783704400062561,0.5247252583503723
1761140354566354400,6.9183544921875,0.5707674622535706,0.23945820331573486,0.5765131115913391
1761140354576413700,6.92841357421875,0.6625139713287354,0.16370168328285217,0.6248994469642639
1761140354586473700,6.9384736328125,0.728449821472168,0.1307317465543747,0.6451022028923035
1761140354596532500,6.948532470703125,0.765765905380249,0.1620665192604065,0.5917717218399048
1761140354606592800,6.9585927734375,0.777338981628418,0.256389319896698,0.4520772397518158
1761140354616652800,6.96865283203125,0.7245115041732788,0.45453137159347534,0.19421474635601044
1761140354626711600,6.978711669921875,0.6054836511611938,0.768741250038147,-0.2027861326932907
1761140354636771600,6.988771484375,0.4534672498703003,1.068314552307129,-0.6921321153640747
1761140354646831600,6.99883154296875,0.3378882110118866,0.8820962309837341,-1.231382131576538
1761140354656890600,7.008890625,0.24749107658863068,0.10142368823289871,-1.764628291130066
1761140354666950700,7.01895068359375,0.14708217978477478,-0.6029477715492249,-2.1866438388824463
1761140354677009700,7.029009765625,0.05071120709180832,-1.0529260635375977,-2.3518989086151123
1761140354687069700,7.039069580078125,-0.0365467295050621,-1.2701297998428345,-2.1770477294921875
1761140354697129700,7.049129638671875,-0.13679173588752747,-1.110952615737915,-1.6706697940826416
1761140354707188500,7.0591884765625,-0.2324942946434021,-0.7162012457847595,-1.0244183540344238
1761140354717248800,7.069248779296875,-0.25787362456321716,-0.2981329560279846,-0.4078121781349182
1761140354727307500,7.0793076171875,-0.21188749372959137,0.06181827560067177,0.06453434377908707
1761140354737367000,7.089366943359375,-0.13024455308914185,0.3154129385948181,0.35217612981796265
1761140354747427300,7.09942724609375,-0.04713049158453941,0.5001828074455261,0.4825695753097534
1761140354757486000,7.109486083984375,0.018878858536481857,0.6186552047729492,0.5011022686958313
1761140354767546000,7.119546142578125,0.06233019381761551,0.6748407483100891,0.4335498809814453
1761140354777606000,7.12960595703125,0.08523206412792206,0.6935800313949585,0.3316597640514374
1761140354787665200,7.1396650390625,0.09808848053216934,0.6949430108070374,0.2089085727930069
1761140354797725200,7.14972509765625,0.08630972355604172,0.681106448173523,0.0870935246348381
1761140354807784200,7.1597841796875,0.04461633414030075,0.6610949039459229,-0.016089318320155144
1761140354817844200,7.16984423828125,-0.02344880998134613,0.6242679953575134,-0.08178269863128662
1761140354827904300,7.179904296875,-0.1124790757894516,0.5389224886894226,-0.12235516309738159
1761140354837963000,7.189962890625,-0.23994874954223633,0.3648676574230194,-0.1573033183813095
1761140354848023300,7.200023193359375,-0.3991178870201111,0.10137875378131866,-0.15282468497753143
1761140354858082000,7.21008203125,-0.5767355561256409,-0.2124161422252655,-0.0783545970916748
1761140354868142000,7.22014208984375,-0.7560075521469116,-0.5250728130340576,0.06351678818464279
1761140354878202000,7.2302021484375,-0.9205255508422852,-0.7237279415130615,0.2816726863384247
1761140354888261000,7.24026123046875,-1.0337806940078735,-0.8044984340667725,0.5370544195175171
1761140354898321200,7.250321044921875,-1.078212857246399,-0.8484005928039551,0.7878365516662598
1761140354908381200,7.260381103515625,-1.0258383750915527,-0.828317403793335,1.0311962366104126
1761140354918440200,7.270440185546875,-0.8910589218139648,-0.6900487542152405,1.2440173625946045
1761140354928500200,7.280500244140625,-0.7000213265419006,-0.47431591153144836,1.3882273435592651
1761140354938559000,7.29055908203125,-0.4828489124774933,-0.22193752229213715,1.4509001970291138
1761140354948619000,7.300618896484375,-0.2448781430721283,0.025836067274212837,1.4347063302993774
1761140354958679300,7.31067919921875,-0.01119021326303482,0.23145461082458496,1.344818353652954
1761140354968738000,7.320738037109375,0.1925906091928482,0.37954580783843994,1.203320860862732
1761140354978798000,7.330798095703125,0.37709859013557434,0.46918702125549316,1.063472867012024
1761140354988857000,7.340857177734375,0.5312338471412659,0.4913434386253357,0.9377098679542542
1761140354998917000,7.350917236328125,0.6496157646179199,0.43675169348716736,0.8212877511978149
1761140355008977200,7.36097705078125,0.7303676009178162,0.3035470247268677,0.7073401212692261
1761140355019036200,7.3710361328125,0.7834087610244751,0.14012452960014343,0.5924634337425232
1761140355029096200,7.38109619140625,0.814865231513977,0.007640260271728039,0.4745261073112488
1761140355039155000,7.391155029296875,0.8213270902633667,-0.06478603184223175,0.3320649564266205
1761140355049215000,7.401215087890625,0.8139200210571289,-0.10823710262775421,0.13062317669391632
1761140355059275300,7.411275146484375,0.8216856718063354,-0.145042285323143,-0.13235346972942352
1761140355069334000,7.421333984375,0.857582151889801,-0.17142222821712494,-0.44475236535072327
1761140355079394000,7.43139404296875,0.890802264213562,-0.17648813128471375,-0.7900848388671875
1761140355089454000,7.4414541015625,0.8983496427536011,-0.19217947125434875,-1.1351841688156128
1761140355099513000,7.45151318359375,0.8786246180534363,-0.2495279759168625,-1.4470387697219849
1761140355109573000,7.461572998046875,0.8355306386947632,-0.30675745010375977,-1.6821650266647339
1761140355119632100,7.471632080078125,0.7633703947067261,-0.32748860120773315,-1.7955137491226196
1761140355129692200,7.481692138671875,0.6404801607131958,-0.34622499346733093,-1.73287832736969
1761140355139752200,7.491752197265625,0.4758215844631195,-0.3121047019958496,-1.4643409252166748
1761140355149811000,7.50181103515625,0.2928696274757385,-0.18883229792118073,-1.0597753524780273
1761140355159871000,7.51187109375,0.120765320956707,-0.1146405041217804,-0.6303568482398987
1761140355169930200,7.52193017578125,-0.011816425248980522,-0.17030268907546997,-0.2869177460670471
1761140355179990000,7.531989990234375,-0.09036710858345032,-0.29903644323349,-0.0749625563621521
1761140355190050000,7.542050048828125,-0.12387899309396744,-0.44258031249046326,0.016361499205231667
1761140355200109000,7.552109130859375,-0.14356453716754913,-0.5308007597923279,0.009885652922093868
1761140355210169000,7.562169189453125,-0.1409921944141388,-0.5434662103652954,-0.052935920655727386
1761140355220228000,7.57222802734375,-0.11344588547945023,-0.5205926299095154,-0.13930337131023407
1761140355230288100,7.5822880859375,-0.06846988946199417,-0.4592515230178833,-0.21980327367782593
1761140355240348200,7.59234814453125,-0.029508071020245552,-0.3698722720146179,-0.27548879384994507
1761140355250407200,7.6024072265625,-0.03261571377515793,-0.25550734996795654,-0.31863120198249817
1761140355260467000,7.612467041015625,-0.0565507635474205,-0.14921900629997253,-0.3469735085964203
1761140355270527200,7.62252734375,-0.09147492051124573,-0.07134312391281128,-0.35034772753715515
1761140355280586000,7.6325859375,-0.1291109174489975,-0.037313081324100494,-0.3128148913383484
1761140355290646000,7.64264599609375,-0.1756826788187027,-0.034256838262081146,-0.2594858705997467
1761140355300705300,7.652705322265625,-0.2311624139547348,-0.04366541653871536,-0.19687511026859283
1761140355310765000,7.66276513671875,-0.2939256429672241,-0.047645777463912964,-0.15146075189113617
1761140355320825000,7.6728251953125,-0.3493853211402893,-0.03335856646299362,-0.11646557599306107
1761140355330884000,7.682884033203125,-0.38716253638267517,0.001197014469653368,-0.0804750844836235
1761140355340944100,7.692944091796875,-0.3998081088066101,0.05024116858839989,-0.031017424538731575
1761140355351003100,7.703003173828125,-0.3899884819984436,0.05586576461791992,0.02905922569334507
1761140355361063000,7.71306298828125,-0.37153172492980957,0.011974966153502464,0.09573215246200562
1761140355371123200,7.723123291015625,-0.34205931425094604,-0.08355182409286499,0.17061811685562134
1761140355381182200,7.73318212890625,-0.3129369914531708,-0.16082164645195007,0.25392019748687744
1761140355391242000,7.743241943359375,-0.27015385031700134,-0.18291762471199036,0.3340344727039337
1761140355401302000,7.753302001953125,-0.2184148132801056,-0.145731583237648,0.3914957046508789
1761140355411361300,7.763361328125,-0.15942366421222687,-0.0771448090672493,0.39690086245536804
1761140355421421000,7.773421142578125,-0.10120395570993423,-0.017823830246925354,0.345905065536499
1761140355431480000,7.78347998046875,-0.06082218140363693,0.028631286695599556,0.2553493082523346
1761140355441540000,7.7935400390625,-0.032936181873083115,0.07810036838054657,0.14355595409870148
1761140355451600100,7.80360009765625,-0.027539819478988647,0.11405304074287415,0.022982411086559296
1761140355461659100,7.8136591796875,-0.037408918142318726,0.1336800754070282,-0.08372592180967331
1761140355471719000,7.823718994140625,-0.06565813720226288,0.12351664155721664,-0.16125158965587616
1761140355481778200,7.833778076171875,-0.12064485996961594,0.11493629962205887,-0.2134680300951004
1761140355491838200,7.843838134765625,-0.20720027387142181,0.14039504528045654,-0.2465335726737976
1761140355501898000,7.85389794921875,-0.3210690915584564,0.1816108375787735,-0.2737860679626465
1761140355511957200,7.863957275390625,-0.4616091549396515,0.2056378722190857,-0.2954977750778198
1761140355522017300,7.874017333984375,-0.6019174456596375,0.22821460664272308,-0.2958287000656128
1761140355532076000,7.884075927734375,-0.732344925403595,0.24806898832321167,-0.2675568461418152
1761140355542136300,7.89413623046875,-0.8432329893112183,0.24104146659374237,-0.18629090487957
1761140355552196000,7.904196044921875,-0.9241459369659424,0.22649581730365753,-0.029316730797290802
1761140355562255000,7.914255126953125,-0.9663989543914795,0.18865664303302765,0.18195368349552155
1761140355572315100,7.924315185546875,-1.0132203102111816,0.07859671115875244,0.35425299406051636
1761140355582374100,7.9343740234375,-1.0672262907028198,-0.07929246127605438,0.4294591248035431
1761140355592434200,7.94443408203125,-1.0840423107147217,-0.16098758578300476,0.4741360545158386
1761140355602494200,7.954494140625,-1.0421708822250366,-0.2186521589756012,0.5361675024032593
1761140355612553200,7.96455322265625,-0.986200213432312,-0.30582061409950256,0.6355412602424622
1761140355622613200,7.97461328125,-0.9284852147102356,-0.3227258622646332,0.776016354560852
1761140355632673000,7.984673095703125,-0.8797096610069275,-0.2637850344181061,0.9221693277359009
1761140355642732000,7.99473193359375,-0.8265869617462158,-0.17145149409770966,1.0382907390594482
1761140355652792300,8.004792236328125,-0.735499918460846,-0.00578928692266345,1.1021493673324585
1761140355662851000,8.01485107421875,-0.6022592186927795,0.15724873542785645,1.116803526878357
1761140355672911000,8.0249111328125,-0.4261188507080078,0.2595948278903961,1.094003677368164
1761140355682971100,8.03497119140625,-0.23636004328727722,0.29393285512924194,1.0644582509994507
1761140355693030100,8.045030029296875,-0.07811394333839417,0.23454728722572327,1.0017565488815308
1761140355703090200,8.055090087890624,0.03436073288321495,0.13209675252437592,0.9185649156570435
1761140355713149200,8.065149169921876,0.09832613170146942,0.07858399301767349,0.8068913817405701
1761140355723209200,8.075209228515625,0.10709566622972488,0.1005275547504425,0.6870099902153015
1761140355733269200,8.085269287109375,0.0635756254196167,0.13686051964759827,0.5346817374229431
1761140355743328800,8.095328857421874,-0.0066047306172549725,0.1491221934556961,0.38372519612312317
1761140355753388500,8.105388427734376,-0.059713754802942276,0.15012353658676147,0.25255465507507324
1761140355763447800,8.11544775390625,-0.09473221004009247,0.13874101638793945,0.15187327563762665
1761140355773507800,8.1255078125,-0.1150667741894722,0.1557122766971588,0.09969555586576462
1761140355783567600,8.135567626953126,-0.14317241311073303,0.24768176674842834,0.07106412947177887
1761140355793627000,8.145626953125,-0.17845956981182098,0.37456247210502625,0.04993540421128273
1761140355803687000,8.15568701171875,-0.20280703902244568,0.4694572687149048,0.03350326791405678
1761140355813745700,8.16574560546875,-0.19652970135211945,0.4944949746131897,0.04408906772732735
1761140355823805700,8.1758056640625,-0.1846654862165451,0.4284712076187134,0.05688871815800667
1761140355833865700,8.18586572265625,-0.1679307073354721,0.3143443763256073,0.05869514122605324
1761140355843924700,8.1959248046875,-0.12683147192001343,0.20803043246269226,0.05254313349723816
1761140355853984800,8.20598486328125,-0.06973621994256973,0.11438808590173721,0.037484291940927505
1761140355864044500,8.21604443359375,-0.008425533771514893,0.07252942025661469,0.017317380756139755
1761140355874103800,8.226103759765625,0.02667679265141487,0.11429683864116669,-0.005706445313990116
1761140355884163800,8.236163818359374,0.0403621643781662,0.24929261207580566,-0.03960317745804787
1761140355894222800,8.246222900390626,0.03855733945965767,0.3704933524131775,-0.08557439595460892
1761140355904283000,8.256282958984375,0.03427213057875633,0.39741241931915283,-0.1436118483543396
1761140355914342700,8.2663427734375,0.029465388506650925,0.3977149724960327,-0.1694093644618988
1761140355924401700,8.276401611328126,0.02475832588970661,0.37717869877815247,-0.15140867233276367
1761140355934462000,8.2864619140625,0.014685717411339283,0.3156157433986664,-0.09244441241025925
1761140355944520700,8.296520751953125,-0.010967190377414227,0.2085399329662323,-0.034539997577667236
1761140355954580700,8.306580810546874,-0.06188230589032173,0.06626933813095093,0.01147250086069107
1761140355964640800,8.316640869140626,-0.13431750237941742,-0.059810638427734375,0.030745821073651314
1761140355974699800,8.32669970703125,-0.21274547278881073,-0.1380913257598877,0.012816090136766434
1761140355984759800,8.336759765625,-0.2625812590122223,-0.1501093953847885,-0.03396649658679962
1761140355994818600,8.346818603515626,-0.28203830122947693,-0.07879766821861267,-0.10505452752113342
1761140356004878800,8.35687890625,-0.26034000515937805,0.07981687784194946,-0.19822601974010468
1761140356014939000,8.36693896484375,-0.1945737898349762,0.2584089934825897,-0.32396480441093445
1761140356024997600,8.37699755859375,-0.08450201153755188,0.4014110565185547,-0.44596612453460693
1761140356035057700,8.3870576171875,0.05703115463256836,0.4827871322631836,-0.5300173759460449
1761140356045116700,8.39711669921875,0.19378821551799774,0.45710116624832153,-0.5492547750473022
1761140356055176700,8.4071767578125,0.26831597089767456,0.3350442349910736,-0.5102511644363403
1761140356065236700,8.41723681640625,0.24643464386463165,0.19608661532402039,-0.423255056142807
1761140356075295700,8.427295654296875,0.1555287092924118,0.04083949699997902,-0.3096297085285187
1761140356085355800,8.437355712890625,0.026323365047574043,-0.07216505706310272,-0.14632315933704376
1761140356095414500,8.44741455078125,-0.11756004393100739,-0.03991710767149925,0.05281230807304382
1761140356105474800,8.457474853515626,-0.2379719465970993,0.009610573761165142,0.20305955410003662
1761140356115534800,8.467534912109375,-0.2972398102283478,0.007497888058423996,0.30848610401153564
1761140356125593600,8.477593505859375,-0.2776696979999542,-0.03557846322655678,0.37171751260757446
1761140356135653600,8.487653564453124,-0.21505588293075562,-0.0940585508942604,0.3899633586406708
1761140356145713000,8.497712890625,-0.1371278464794159,-0.14898326992988586,0.377911776304245
1761140356155772700,8.507772705078125,-0.048149775713682175,-0.18261046707630157,0.33723917603492737
1761140356165832700,8.517832763671874,0.030654756352305412,-0.18711866438388824,0.29556789994239807
1761140356175891700,8.5278916015625,0.10034248977899551,-0.15972432494163513,0.24948376417160034
1761140356185951700,8.53795166015625,0.13132837414741516,-0.10967979580163956,0.18406960368156433
1761140356196010800,8.5480107421875,0.13041970133781433,-0.02346821501851082,0.09227045625448227
1761140356206070800,8.55807080078125,0.11023840308189392,0.07467790693044662,0.008721044287085533
1761140356216130800,8.568130859375,0.08558233082294464,0.11069396138191223,-0.045548584312200546
1761140356226189800,8.57818994140625,0.04602738469839096,0.016771292313933372,-0.039408523589372635
1761140356236249600,8.58824951171875,-0.014042608439922333,-0.17742906510829926,0.01940179616212845
1761140356246308900,8.598308837890626,-0.1011165902018547,-0.382988303899765,0.10507360100746155
1761140356256368600,8.60836865234375,-0.22590698301792145,-0.5512707829475403,0.19847731292247772
1761140356266428700,8.6184287109375,-0.3647913634777069,-0.6464698314666748,0.2770460546016693
1761140356276488000,8.628488037109374,-0.4892672300338745,-0.6709245443344116,0.29854896664619446
1761140356286547700,8.638547607421875,-0.5518592596054077,-0.6709486842155457,0.26523691415786743
1761140356296606700,8.648606689453125,-0.5746985673904419,-0.6735263466835022,0.18708351254463196
1761140356306666800,8.658666748046874,-0.5692964196205139,-0.6848123073577881,0.09001462906599045
1761140356316726800,8.668726806640626,-0.5186300873756409,-0.6899535655975342,0.01920197159051895
1761140356326785800,8.678785888671875,-0.42291852831840515,-0.6509921550750732,0.0006514403503388166
1761140356336845600,8.688845458984375,-0.29022812843322754,-0.5770969390869141,0.05334234982728958
1761140356346904800,8.69890478515625,-0.1319894939661026,-0.5165535807609558,0.1539154052734375
1761140356356964900,8.70896484375,0.01287049800157547,-0.46267440915107727,0.2627529501914978
1761140356367024600,8.719024658203125,0.1033245250582695,-0.40095630288124084,0.30633604526519775
1761140356377084000,8.729083984375,0.12371741235256195,-0.32112032175064087,0.25568830966949463
1761140356387144000,8.73914404296875,0.08108597248792648,-0.1875154823064804,0.13863448798656464
1761140356397203700,8.74920361328125,0.008169954642653465,-0.06983038783073425,0.0039025060832500458
1761140356407262700,8.7592626953125,-0.056823235005140305,0.012950076721608639,-0.0858011394739151
1761140356417322800,8.76932275390625,-0.10926034301519394,0.03343378007411957,-0.09405799955129623
1761140356427381800,8.7793818359375,-0.14281603693962097,-0.03453739359974861,-0.048531342297792435
1761140356437441800,8.78944189453125,-0.14617642760276794,-0.13786378502845764,0.04360950365662575
1761140356447501600,8.79950146484375,-0.13781192898750305,-0.20670607686042786,0.15079635381698608
1761140356457560800,8.809560791015626,-0.12904827296733856,-0.20733165740966797,0.22484955191612244
1761140356467620900,8.819620849609375,-0.10844060033559799,-0.157925084233284,0.24317733943462372
1761140356477679600,8.8296796875,-0.06543561071157455,-0.09366699308156967,0.2085093855857849
1761140356487740000,8.839739990234374,-0.000531438272446394,-0.01956804282963276,0.1390385925769806
1761140356497799700,8.849799560546876,0.06576289236545563,0.047435492277145386,0.04210112243890762
1761140356507858700,8.859858642578125,0.10406146943569183,0.09372376650571823,-0.0652163028717041
1761140356517918700,8.869918701171875,0.10617388784885406,0.13331085443496704,-0.1681879460811615
1761140356527977700,8.879977783203126,0.07560095191001892,0.16922920942306519,-0.2504981458187103
1761140356538037800,8.890037841796875,0.017183450981974602,0.17638139426708221,-0.29442644119262695
1761140356548097800,8.900097900390625,-0.0480625256896019,0.12023913860321045,-0.2750135064125061
1761140356558156800,8.91015673828125,-0.09293066710233688,0.0026214304380118847,-0.19534346461296082
1761140356568216800,8.920216796875,-0.10144853591918945,-0.11338795721530914,-0.07324593514204025
1761140356578275600,8.930275634765625,-0.08040902763605118,-0.1863473802804947,0.05830170586705208
1761140356588335900,8.9403359375,-0.053141478449106216,-0.21748439967632294,0.1458611637353897
1761140356598396000,8.95039599609375,-0.032081734389066696,-0.21683432161808014,0.15705309808254242
1761140356608454700,8.96045458984375,-0.01865604892373085,-0.20260874927043915,0.09593555331230164
1761140356618514700,8.9705146484375,-0.024876393377780914,-0.14952529966831207,-0.013320631347596645
1761140356628573700,8.98057373046875,-0.04632633924484253,-0.06780489534139633,-0.1577128767967224
1761140356638633700,8.9906337890625,-0.07539261132478714,0.0047380137257277966,-0.2847096920013428
1761140356648693800,9.00069384765625,-0.09127791970968246,0.051664382219314575,-0.3469933271408081
1761140356658752800,9.010752685546874,-0.0762086883187294,0.05957397446036339,-0.32733386754989624
1761140356668812800,9.020812744140626,-0.04039556160569191,0.04743901267647743,-0.2576458752155304
1761140356678871600,9.03087158203125,0.005837979726493359,0.021562937647104263,-0.1691943109035492
1761140356688931600,9.040931640625,0.05210127681493759,-0.00784545298665762,-0.10208994895219803
1761140356698991900,9.050991943359374,0.08558999001979828,0.026099465787410736,-0.06949472427368164
1761140356709050600,9.061050537109375,0.09543044120073318,0.06842551380395889,-0.0856458768248558
1761140356719110700,9.071110595703125,0.0784197673201561,0.07109852880239487,-0.13277770578861237
1761140356729170000,9.081169921875,0.04602319747209549,0.06667963415384293,-0.16671974956989288
1761140356739229400,9.0912294921875,-0.007160395383834839,0.05460885539650917,-0.18147072196006775
1761140356749289200,9.101289306640625,-0.059548769146203995,0.048867881298065186,-0.1578892320394516
1761140356759348500,9.111348388671875,-0.08872129768133163,0.04891049116849899,-0.1181386336684227
1761140356769408500,9.121408447265624,-0.0934516042470932,0.035978447645902634,-0.0840056985616684
1761140356779467300,9.13146728515625,-0.07122202962636948,0.01619723066687584,-0.06022986024618149
1761140356789527300,9.14152734375,-0.024557018652558327,0.023211266845464706,-0.03702227398753166
1761140356799587600,9.151587646484375,0.02066931687295437,0.011216121725738049,-0.03232765197753906
1761140356809646300,9.161646240234376,0.05840867757797241,0.00283211562782526,-0.023701516911387444
1761140356819706400,9.171706298828125,0.07337937504053116,0.014466400258243084,-0.02163810096681118
1761140356829765400,9.181765380859375,0.05744783952832222,0.03862138092517853,-0.02546308934688568
1761140356839825400,9.191825439453124,0.022313551977276802,0.07509976625442505,-0.04084710404276848
1761140356849885400,9.201885498046876,-0.01428353413939476,0.08706124871969223,-0.05886539816856384
1761140356859944400,9.2119443359375,-0.04847825691103935,0.0802299752831459,-0.07187733799219131
1761140356870004500,9.22200439453125,-0.07506914436817169,0.05603531748056412,-0.07252965867519379
1761140356880063200,9.232063232421876,-0.0823635458946228,0.01898408867418766,-0.048313263803720474
1761140356890123300,9.242123291015625,-0.06099990755319595,-0.03110719658434391,-0.0052450476214289665
1761140356900183600,9.25218359375,-0.02974398247897625,-0.05626501142978668,0.03934026509523392
1761140356910242300,9.2622421875,-0.007126636803150177,-0.03406396508216858,0.04869992658495903
1761140356920302300,9.27230224609375,0.008178283460438251,-0.009645175188779831,0.009247591719031334
1761140356930361300,9.282361328125,0.022954970598220825,-0.0008001723326742649,-0.04021655023097992
1761140356940421400,9.29242138671875,0.011201375164091587,0.012860778719186783,-0.08058607578277588
1761140356950480400,9.30248046875,-0.02448563650250435,0.02060505747795105,-0.11124227941036224
1761140356960540400,9.31254052734375,-0.0546368770301342,0.01892140507698059,-0.12559965252876282
1761140356970600400,9.322600341796875,-0.07609257847070694,-0.0026869657449424267,-0.12232975661754608
1761140356980659500,9.332659423828124,-0.09040360897779465,-0.020249180495738983,-0.10711830854415894
1761140356990719200,9.34271923828125,-0.0987403616309166,-0.04495350271463394,-0.08486876636743546
1761140357000779300,9.352779296875,-0.09744233638048172,-0.07563072443008423,-0.07851393520832062
1761140357010838300,9.36283837890625,-0.0706821009516716,-0.09712562710046768,-0.0765695571899414
1761140357020898300,9.372898193359376,-0.033018872141838074,-0.1097269132733345,-0.08325515687465668
1761140357030957600,9.38295751953125,-0.005756414029747248,-0.0951109305024147,-0.10562045127153397
1761140357041017300,9.393017333984375,0.020554551854729652,-0.051314715296030045,-0.12916253507137299
1761140357051077400,9.403077392578124,0.03754889965057373,-0.037676531821489334,-0.1551390141248703
1761140357061136400,9.413136474609376,0.03139832988381386,-0.046462830156087875,-0.1811344027519226
1761140357071196400,9.423196533203125,0.02213708497583866,-0.03444612771272659,-0.20551002025604248
1761140357081255400,9.43325537109375,0.013171553611755371,0.0011640661396086216,-0.22067219018936157
1761140357091315200,9.443315185546876,0.013171222060918808,0.01674521341919899,-0.2353791892528534
1761140357101375200,9.453375244140625,0.03074648790061474,0.013988042250275612,-0.23224091529846191
1761140357111434500,9.4634345703125,0.06511308252811432,-0.018883077427744865,-0.2074514478445053
1761140357121494300,9.473494384765624,0.10134325921535492,-0.0625983327627182,-0.15592381358146667
1761140357131553500,9.483553466796875,0.12874895334243774,-0.08497156202793121,-0.10946839302778244
1761140357141613600,9.493613525390625,0.14657029509544373,-0.07095667719841003,-0.08965660631656647
1761140357151672300,9.50367236328125,0.15660671889781952,-0.03740321844816208,-0.1017352044582367
1761140357161732400,9.513732421875,0.14277079701423645,0.0074430834501981735,-0.12570153176784515
1761140357171792400,9.52379248046875,0.11996708810329437,0.034560076892375946,-0.14881305396556854
1761140357181851400,9.533851318359375,0.10153428465127945,0.05613860487937927,-0.16199782490730286
1761140357191911400,9.543911376953124,0.0852789655327797,0.06255215406417847,-0.15869122743606567
1761140357201970400,9.553970458984375,0.07166914641857147,0.050449684262275696,-0.13122791051864624
1761140357212030500,9.564030517578125,0.06370881199836731,0.049855999648571014,-0.08893343061208725
1761140357222090500,9.574090576171875,0.06314821541309357,0.08024346828460693,-0.03543292358517647
1761140357232149200,9.584149169921876,0.06522300839424133,0.12088127434253693,0.0041069090366363525
1761140357242209500,9.59420947265625,0.0597267784178257,0.15696337819099426,0.017484232783317566
1761140357252268300,9.604268310546875,0.044104594737291336,0.17372998595237732,0.014466322027146816
1761140357262328300,9.614328369140624,0.02174629084765911,0.17360055446624756,0.0011262820335105062
1761140357272388400,9.624388427734376,-0.0010555303888395429,0.153997540473938,-0.007872771471738815
1761140357282447400,9.634447265625,-0.0008001332171261311,0.12010135501623154,-0.011475229635834694
1761140357292507400,9.64450732421875,0.0038743112236261368,0.10096649080514908,0.005258702673017979
1761140357302566400,9.65456640625,0.022400591522455215,0.10446615517139435,0.025266500189900398
1761140357312626400,9.66462646484375,0.05935489013791084,0.12085732817649841,0.0524146594107151
1761140357322686500,9.6746865234375,0.09802265465259552,0.127106174826622,0.0691869780421257
1761140357332745200,9.6847451171875,0.11705752462148666,0.11636844277381897,0.06297141313552856
1761140357342805500,9.694805419921876,0.12243657559156418,0.11758790910243988,0.04784359037876129
1761140357352864300,9.7048642578125,0.11387467384338379,0.11324401944875717,0.033031392842531204
1761140357362924300,9.71492431640625,0.10277062654495239,0.073527492582798,0.028690706938505173
1761140357372984300,9.724984375,0.09206303209066391,0.045335449278354645,0.048283934593200684
1761140357383043300,9.735043212890625,0.09182094782590866,0.03790949285030365,0.09243568032979965
1761140357393103400,9.745103271484375,0.09482714533805847,0.0028666951693594456,0.13873042166233063
1761140357403162400,9.755162353515624,0.10633839666843414,-0.04683534801006317,0.19449995458126068
1761140357413222400,9.765222412109376,0.11983133852481842,-0.10341227054595947,0.25236353278160095
1761140357423282400,9.775282470703125,0.12810897827148438,-0.1620446890592575,0.29733821749687195
1761140357433341200,9.785341064453124,0.13177762925624847,-0.2031606286764145,0.33786457777023315
1761140357443401200,9.795401123046876,0.13836468756198883,-0.2600982189178467,0.38039523363113403
1761140357453460500,9.80546044921875,0.12878184020519257,-0.3508041501045227,0.42598482966423035
1761140357463520300,9.815520263671875,0.11143959313631058,-0.44653812050819397,0.4906168282032013
1761140357473579500,9.82557958984375,0.10831853002309799,-0.5209476351737976,0.5794416666030884
1761140357483639600,9.8356396484375,0.11997305601835251,-0.548724889755249,0.6798518896102905
1761140357493699300,9.84569921875,0.13487057387828827,-0.4994783103466034,0.7701895236968994
1761140357503758300,9.85575830078125,0.13892923295497894,-0.41081714630126953,0.8272647857666016
1761140357513818400,9.865818359375,0.1268160194158554,-0.32638120651245117,0.8546146154403687
1761140357523877400,9.87587744140625,0.10090639442205429,-0.27472519874572754,0.8607004880905151
1761140357533937400,9.8859375,0.05769794434309006,-0.2674476206302643,0.8476389050483704
1761140357543997200,9.8959970703125,0.004154824651777744,-0.2635660469532013,0.8203985095024109
1761140357554056400,9.906056396484376,-0.046147238463163376,-0.255668967962265,0.7785558104515076
1761140357564116500,9.916116455078125,-0.09813666343688965,-0.255937397480011,0.7252430319786072
1761140357574175200,9.92617529296875,-0.13938754796981812,-0.23264966905117035,0.6719322204589844
1761140357584235500,9.936235595703126,-0.15770795941352844,-0.15640896558761597,0.6360090970993042
1761140357594295300,9.94629541015625,-0.17401285469532013,-0.07016166299581528,0.5756080150604248
1761140357604354300,9.956354248046875,-0.19314579665660858,-0.028039779514074326,0.49181029200553894
1761140357614414300,9.966414306640624,-0.21978694200515747,0.01269005797803402,0.3844977617263794
1761140357624473300,9.976473388671875,-0.23029816150665283,0.1321469396352768,0.2649300694465637
1761140357634533400,9.986533447265625,-0.21295997500419617,0.30088508129119873,0.12539304792881012
1761140357644593400,9.996593505859375,-0.16617195308208466,0.3918152451515198,-0.0513276569545269
1761140357654652400,10.00665234375,-0.1132923886179924,0.4133348762989044,-0.2124253362417221
1761140357664712400,10.01671240234375,-0.06841439753770828,0.40976065397262573,-0.323895126581192
1761140357674771200,10.026771240234375,-0.047581251710653305,0.3499477505683899,-0.3637295365333557
1761140357684831500,10.03683154296875,-0.05555981397628784,0.25560927391052246,-0.330942839384079
1761140357694891500,10.0468916015625,-0.07134014368057251,0.16426220536231995,-0.24162156879901886
1761140357704950300,10.0569501953125,-0.08866401016712189,0.11764571815729141,-0.121574267745018
1761140357715010300,10.06701025390625,-0.11259281635284424,0.09872468560934067,-0.031140772625803947
1761140357725069300,10.0770693359375,-0.14387856423854828,0.08068309724330902,-0.016502974554896355
1761140357735129300,10.08712939453125,-0.16991138458251953,0.09934574365615845,-0.06344974786043167
1761140357745189600,10.097189697265625,-0.17885693907737732,0.14627757668495178,-0.169962078332901
1761140357755248600,10.10724853515625,-0.174390509724617,0.17467617988586426,-0.27882859110832214
1761140357765308700,10.11730859375,-0.13455282151699066,0.17524182796478271,-0.33720535039901733
1761140357775367700,10.12736767578125,-0.0739118903875351,0.1484203040599823,-0.3299720883369446
1761140357785427500,10.137427490234375,0.000887254485860467,0.08548767864704132,-0.2517012357711792
1761140357795486700,10.14748681640625,0.0643242746591568,0.03304634988307953,-0.1232939064502716
1761140357805546500,10.15754638671875,0.10058534145355225,0.006607818882912397,-0.0014505581930279732
1761140357815606500,10.1676064453125,0.11327230930328369,-0.013114163652062416,0.06881432235240936
1761140357825665800,10.177665771484374,0.11446593701839447,-0.03523917496204376,0.08897631615400314
1761140357835725600,10.1877255859375,0.10874395817518234,-0.054782431572675705,0.07208806276321411
1761140357845784600,10.19778466796875,0.10053317248821259,-0.10128974169492722,0.03566720709204674
1761140357855844900,10.207844970703125,0.10658936947584152,-0.16733960807323456,0.020646480843424797
1761140357865904600,10.217904541015624,0.14460758864879608,-0.19119326770305634,0.05567077919840813
1761140357875963600,10.227963623046875,0.17394261062145233,-0.2564965784549713,0.10500290989875793
1761140357886023400,10.2380234375,0.197876438498497,-0.3092801570892334,0.1771245151758194
1761140357896082700,10.248082763671874,0.22989022731781006,-0.3227423131465912,0.2664215862751007
1761140357906142700,10.258142822265626,0.2537209987640381,-0.322386234998703,0.33314284682273865
1761140357916202500,10.268202392578125,0.2710937261581421,-0.31303587555885315,0.37241607904434204
1761140357926261800,10.27826171875,0.27833086252212524,-0.274005651473999,0.37937334179878235
1761140357936321800,10.28832177734375,0.2603531777858734,-0.22114978730678558,0.34715700149536133
1761140357946380500,10.298380615234375,0.2001601606607437,-0.1881990283727646,0.272420197725296
1761140357956440600,10.308440673828125,0.146775484085083,-0.1096743568778038,0.21060726046562195
1761140357966499600,10.31849951171875,0.11173893511295319,-0.004205189645290375,0.1640072613954544
1761140357976559600,10.3285595703125,0.05365205928683281,0.06305895745754242,0.0924089103937149
1761140357986619600,10.33861962890625,0.022329024970531464,0.13437627255916595,0.019700348377227783
1761140357996678700,10.3486787109375,0.0022699858527630568,0.18268445134162903,-0.053283970803022385
1761140358006738700,10.35873876953125,-0.020650776103138924,0.17205284535884857,-0.11496757715940475
1761140358016797400,10.36879736328125,-0.04111180454492569,0.11745838075876236,-0.16289009153842926
1761140358026857700,10.378857666015625,-0.05760236456990242,0.04235910251736641,-0.19614364206790924
1761140358036917800,10.388917724609374,-0.07413425296545029,-0.02323697879910469,-0.21901477873325348
1761140358046976500,10.3989765625,-0.09609174728393555,-0.027767281979322433,-0.2527328133583069
1761140358057036500,10.40903662109375,-0.10938091576099396,0.018206294625997543,-0.3010633885860443
1761140358067095600,10.419095458984375,-0.11463479697704315,0.0754871591925621,-0.3510567843914032
1761140358077155600,10.429155517578126,-0.10505741834640503,0.13175168633460999,-0.3825359046459198
1761140358087214600,10.439214599609375,-0.08849895000457764,0.15621788799762726,-0.3777768313884735
1761140358097274600,10.449274658203125,-0.06135668605566025,0.14338697493076324,-0.3311792016029358
1761140358107334700,10.459334716796874,-0.03365581855177879,0.08533911406993866,-0.261898398399353
1761140358117393700,10.4693935546875,-0.013048828579485416,0.02420050837099552,-0.1938716173171997
1761140358127453400,10.479453369140625,0.0006741735269315541,-0.009464777074754238,-0.15522940456867218
1761140358137512700,10.4895126953125,0.005973184481263161,-0.033115848898887634,-0.1488708257675171
1761140358147572500,10.499572509765626,0.0060378992930054665,-0.03942594304680824,-0.1865289956331253
1761140358157632500,10.509632568359375,-0.005166524555534124,0.009936155751347542,-0.23898345232009888
1761140358167691800,10.51969189453125,-0.006223000586032867,0.09583055973052979,-0.2873312830924988
1761140358177751600,10.52975146484375,-0.00002340890932828188,0.16630646586418152,-0.31388944387435913
1761140358187810600,10.539810546875,0.015611743554472923,0.1928826868534088,-0.31140393018722534
1761140358197870800,10.549870849609375,0.046796709299087524,0.13751991093158722,-0.2536298334598541
1761140358207929600,10.5599296875,0.07530957460403442,0.051672108471393585,-0.15043555200099945
1761140358217989600,10.56998974609375,0.088162861764431,0.01690657250583172,-0.026946520432829857
1761140358228049400,10.58004931640625,0.07657144963741302,0.03447677567601204,0.07081945985555649
1761140358238108700,10.590108642578125,0.053638771176338196,0.103145532310009,0.1141812652349472
1761140358248168700,10.600168701171874,0.03019816055893898,0.19567599892616272,0.10406231880187988
1761140358258227700,10.610227783203126,0.007715360261499882,0.2549860179424286,0.06189977377653122
1761140358268287700,10.620287841796875,-0.015108996070921421,0.25537165999412537,0.021244751289486885
1761140358278347800,10.63034765625,-0.031254611909389496,0.2243652194738388,-0.0026888507418334484
1761140358288406500,10.640406494140626,-0.026630565524101257,0.1938571184873581,-0.004654264077544212
1761140358298466600,10.650466552734375,-0.009964676573872566,0.19754381477832794,0.001898626796901226
1761140358308525600,10.660525634765625,0.01840384677052498,0.1894105225801468,-0.0026758851017802954
1761140358318585600,10.670585693359374,0.04128924384713173,0.1767948418855667,-0.022656988352537155
1761140358328644600,10.68064453125,0.05574647709727287,0.1679246574640274,-0.05403035879135132
1761140358338704600,10.69070458984375,0.06461162120103836,0.12378165125846863,-0.07730142772197723
1761140358348764700,10.7007646484375,0.06671737879514694,0.05049385502934456,-0.08893197774887085
1761140358358823400,10.710823486328126,0.0642387792468071,0.006097895093262196,-0.08008229732513428
1761140358368883700,10.7208837890625,0.06826281547546387,0.05104513093829155,-0.06722322106361389
1761140358378942700,10.730942626953125,0.060598623007535934,0.10555969923734665,-0.055950313806533813
1761140358389002500,10.74100244140625,0.042611099779605865,0.15711051225662231,-0.050425052642822266
1761140358399062500,10.7510625,0.036883383989334106,0.23067449033260345,-0.03573485091328621
1761140358409121500,10.76112158203125,0.05791569873690605,0.3503268361091614,-0.02660526894032955
1761140358419181600,10.771181640625,0.11255715787410736,0.48920881748199463,-0.015532848425209522
1761140358429240600,10.781240478515626,0.16532716155052185,0.5777544379234314,0.007532790768891573
1761140358439300600,10.791300537109375,0.19592715799808502,0.563383936882019,-0.001193692092783749
1761140358449360600,10.801360595703125,0.19017979502677917,0.5363866686820984,0.01033939328044653
1761140358459419600,10.811419677734374,0.11836787313222885,0.31628891825675964,-0.06906451284885406
1761140358469479700,10.821479736328126,0.058408137410879135,0.12258628010749817,-0.13485950231552124
1761140358479538700,10.83153857421875,0.051935553550720215,0.05857391655445099,-0.11732671409845352
1761140358489598500,10.841598388671875,0.06787217408418655,-0.000003112480044364929,-0.07394514977931976
1761140358499657700,10.85165771484375,0.06750840693712234,-0.049974750727415085,-0.04297225549817085
1761140358509717800,10.8617177734375,0.05747228488326073,-0.09898197650909424,-0.05452771484851837
1761140358519777500,10.871777587890625,0.05207091569900513,-0.12455765902996063,-0.11700087785720825
1761140358529836500,10.88183642578125,0.038396380841732025,-0.11873305588960648,-0.2154475599527359
1761140358539896800,10.891896728515626,-0.016439272090792656,-0.08177398890256882,-0.3112603425979614
1761140358549955600,10.90195556640625,-0.09591785073280334,-0.13401055335998535,-0.3926260471343994
