time,seconds_elapsed,z,y,x
1761140454075014100,0.07001416015625,0.04292085783779621,0.007341366605600342,-0.013412722408538684
1761140454085073000,0.080072998046875,0.03783259478807449,-0.0032834147179964927,-0.015226539498008786
1761140454095132200,0.090132080078125,0.03723462889492511,-0.012913778176764026,-0.000390113562438637
1761140454105192200,0.100192138671875,0.037084991291165346,-0.012050247549451887,-0.0020059147286228835
1761140454115251000,0.1102509765625,0.03259469413459301,-0.004840206572785973,-0.00819435757258907
1761140454125310200,0.120310302734375,0.055934653189778326,-0.01040264473920688,-0.008920744751533493
1761140454135370000,0.130369873046875,0.05637947434782981,-0.003764065241254866,-0.010852187738148495
1761140454145429200,0.14042919921875,0.04530570714771747,-0.007613415879476815,-0.016426215877663342
1761140454155488000,0.150488037109375,0.03348258288502693,0.0008424239072017371,0.0007462791895028203
1761140454165548000,0.160548095703125,0.05069032279551029,-0.009322758814319968,0.002166530384123325
1761140454175607300,0.170607177734375,0.029285715717077252,0.00001587342256680131,-0.008158857000945135
1761140454185666000,0.180666015625,0.04364624950289726,0.009218275526538491,-0.0044627515625208615
1761140454195726000,0.19072607421875,0.04349602737724781,-0.003887180164270103,-0.009014323052810504
1761140454205785000,0.20078515625,0.05232406147718429,-0.0068901431062258775,-0.017535126967635005
1761140454215844000,0.210843994140625,0.043047699087858195,0.0026242292900569737,0.0021679642893839626
1761140454225903900,0.22090380859375,0.04155424565970897,-0.0030767222979106008,-0.003996549689723178
1761140454235963100,0.230963134765625,0.05248012882173061,-0.01434402104243636,0.014374991569435223
1761140454246023200,0.241023193359375,0.0432610495775938,-0.00332434038342908,-0.008495532476250081
1761140454256082200,0.251082275390625,0.024464579170942306,-0.009383019367884844,-0.006688081195484846
1761140454266141200,0.26114111328125,0.045915948000550266,0.0037947526404634117,-0.008672679141443223
1761140454276201000,0.271200927734375,0.05085281988084316,-0.006556655101850628,-0.006207458071690052
1761140454286260200,0.28126025390625,0.058492520979046815,0.0057552755910903215,-0.007857316771103068
1761140454296319000,0.291319091796875,0.03245265531539917,0.0004237235710956156,0.003634502311144024
1761140454306379000,0.30137890625,0.03917874870002269,-0.001658781791385263,-0.006878133008023724
1761140454316438300,0.311438232421875,0.043617607930302615,-0.0019157887597568333,0.006605243483930826
1761140454326497000,0.3214970703125,0.04885375501811504,-0.008176164328772575,0.005354841564036906
1761140454336557000,0.33155712890625,0.03912146555483341,-0.01669940679585561,0.012140154322609304
1761140454346616000,0.341615966796875,0.029261750319600103,0.004086355998180806,0.005426317631360143
1761140454356675000,0.351675048828125,0.03240297095477581,0.006942421282734722,-0.00825988795631565
1761140454366735000,0.361735107421875,0.028529344391822812,-0.014361392302345484,-0.011445879314979538
1761140454376794000,0.371794189453125,0.0506768787920475,-0.008177004578988999,0.01252566477516666
1761140454386853000,0.38185302734375,0.04678922370374203,-0.009266297653038054,0.002361824627360329
1761140454396913200,0.3919130859375,0.039298575687408445,-0.012514485794026404,0.010626005166303366
1761140454406972200,0.40197216796875,0.056494040638208384,-0.003521251195017248,-0.002118106398824602
1761140454417032000,0.412031982421875,0.03806523450016975,-0.002122837372869253,-0.004951822854252532
1761140454427091200,0.42209130859375,0.032382512688636775,0.000756700118817389,0.0027465678949374706
1761140454437150000,0.43214990234375,0.04151800530254841,-0.007225859600305556,-0.0043238636816386134
1761140454447210000,0.4422099609375,0.040917116799950595,0.003030508536007255,-0.00897537014875561
1761140454457269200,0.452269287109375,0.04479541953802108,-0.006191931708995253,0.01915098293274641
1761140454467328000,0.462327880859375,0.02997252893745899,-0.009187314132694155,0.007345814451854675
1761140454477388000,0.472387939453125,0.04582242449820041,-0.010703892708104103,-0.006999439566442742
1761140454487447000,0.482447021484375,0.06572364127635956,0.0039558980189263815,-0.0068803249651100485
1761140454497506000,0.492506103515625,0.039838089391589164,0.010575188294518739,0.004114504380431026
1761140454507566300,0.50256640625,0.047018940806388854,-0.0017200652582570908,-0.007203501638025045
1761140454517625000,0.512625,0.052851300221681594,-0.00951956002805382,0.009993936074152589
1761140454527684000,0.52268408203125,0.05869242746531963,0.014006514450069516,0.009241875597834586
1761140454537744100,0.532744140625,0.04985153388381004,-0.014201434233970939,-0.015194975315965711
1761140454547803100,0.54280322265625,0.04206219518184662,0.004704981086868792,-0.008370262128766626
1761140454557862100,0.552862060546875,0.04909282447099685,0.011539996472373604,-0.005213104138942435
1761140454567922200,0.562922119140625,0.05059329216182232,0.006756269327178597,-0.015666501817852257
1761140454577981000,0.57298095703125,0.03518120349645614,-0.005213332467805594,-0.005514151178440079
1761140454588040200,0.583040283203125,0.04625497069656849,0.0002966631253249943,-0.010991112151648849
1761140454598100200,0.593100341796875,0.052532151269912716,0.010526015390548855,0.00734314757073298
1761140454608159000,0.603158935546875,0.022009002712368962,0.0058082113547250624,-0.0002921878796070814
1761140454618219300,0.61321923828125,0.05029167886674404,0.007692216736730187,0.0039039486359804866
1761140454628278000,0.623278076171875,0.046106502136588096,-0.005389565817546099,0.002195829543843865
1761140454638337000,0.6333369140625,0.03459668160676956,-0.010400745043065398,-0.007298011521063744
1761140454648397300,0.643397216796875,0.05526537562608719,0.00850051917862147,0.011627044568164274
1761140454658456000,0.6534560546875,0.045541853991150856,0.014313077914901077,0.005363737256545573
1761140454668515300,0.663515380859375,0.03761573716700077,0.010401457429118454,0.011670847177272662
1761140454678575000,0.6735751953125,0.02849427307844162,0.006897084303665906,0.006237442218000069
1761140454688634000,0.683634033203125,0.034036125114560126,0.0009949475877918303,0.012389379843324421
1761140454698693000,0.693693115234375,0.045859249377250666,-0.0018839140504598615,-0.007016701228497549
1761140454708753200,0.703753173828125,0.0449561630576849,0.008478216015268117,-0.002295362661872059
1761140454718812000,0.71381201171875,0.02848842785954475,0.01223214345499873,-0.004166143236123025
1761140454728871200,0.72387109375,0.05467033234238624,0.002571366591658443,-0.015523394419578835
1761140454738931200,0.73393115234375,0.05556932700872421,-0.0031314481598325073,0.0004240523646585643
1761140454748990000,0.743989990234375,0.041648938205838204,0.002139149186853319,-0.012953872725134714
1761140454759049200,0.75404931640625,0.04942541742622852,0.00022319603031501173,-0.003899665186507627
1761140454769109000,0.76410888671875,0.04104278900623321,0.01445453221220523,0.015186134422384201
1761140454779168300,0.774168212890625,0.05016834474802017,0.010540190046373753,-0.008778505002940072
1761140454789227000,0.78422705078125,0.05270867688059806,-0.006724120623245835,-0.009423789769690483
1761140454799287000,0.794287109375,0.03608370529413223,0.007436324013210833,-0.009981597182387485
1761140454809346300,0.80434619140625,0.008550386202335357,-0.0010351152013987302,-0.015515823034476487
1761140454819406000,0.814406005859375,0.06286006853878498,-0.010174827332701534,0.01327595341950655
1761140454829464600,0.824464599609375,0.034281039786338806,-0.0024492928482592103,0.010064389228168874
1761140454839523800,0.83452392578125,0.051337388527393335,0.000698467125557363,-0.0017059180018957703
1761140454849583600,0.84458349609375,0.052833764564991,0.004659771971963346,0.004208822467224672
1761140454859642600,0.854642578125,0.04146306024491787,-0.0004047266096808016,0.0026695206033531577
1761140454869701600,0.86470166015625,0.055524903345108026,-0.00993257954204455,-0.005605391392158344
1761140454879761700,0.87476171875,0.03831833247840404,0.010003562419023363,0.00037000235617160797
1761140454889821000,0.884821044921875,0.0302379018753767,0.018597678165230898,0.0031232100544497368
1761140454899879700,0.894879638671875,0.05671732800006866,0.007691687013767659,0.01058580102007836
1761140454909939700,0.904939697265625,0.04219838878214359,-0.0018356361956335602,-0.0040810496354009955
1761140454919998700,0.914998779296875,0.04563771558105945,0.00045183542072772977,-0.0021349296694621444
1761140454930057700,0.9250576171875,0.05027355868816375,-0.00033352453699335454,0.013133814135612919
1761140454940117800,0.93511767578125,0.04054594539999962,-0.006062953300774097,-0.005430948140705004
1761140454950176800,0.9451767578125,0.05027297416627407,0.009980163277126848,0.004518600802449509
1761140454960235800,0.95523583984375,0.03890168532431126,0.008167067706864328,-0.012211274196906015
1761140454970295600,0.965295654296875,0.04518997181355953,-0.010448310511838645,0.010817792278202249
1761140454980354800,0.975354736328125,0.02828326067626476,0.0013489851898513734,-0.0010432802415452898
1761140454990413600,0.98541357421875,0.05357376927733421,0.0032562070506624873,-0.0037783677612431344
1761140455000473900,0.995473876953125,0.048636897397041315,0.0043658487929962575,0.013185526056541129
1761140455010532600,1.00553271484375,0.04983458274900913,-0.0033617132517509162,0.0176324772617314
1761140455020592600,1.015592529296875,0.051185997357964516,0.007156703354232013,-0.00552098277802579
1761140455030652000,1.02565185546875,0.0459539419233799,0.002234955977834761,0.010165127922594547
1761140455040710700,1.035710693359375,0.04760696982741355,0.016720979306846857,-0.005639750319486484
1761140455050770700,1.045770751953125,0.027555530923604965,-0.003501779309567064,0.006476913529681041
1761140455060829700,1.05582958984375,0.04730827914178371,-0.0005641366887837649,0.004171979321865364
1761140455070888700,1.065888671875,0.032795769664645195,0.004402070883847773,0.006925406215852126
1761140455080948700,1.07594873046875,0.04476736248731613,-0.008881956244260072,-0.015474130184063687
1761140455091007700,1.0860078125,0.04251987582147121,-0.002903813416417688,0.02538592266640626
1761140455101066800,1.096066650390625,0.05494155049920082,-0.005804777288623154,-0.002374245717516169
1761140455111126800,1.106126708984375,0.04102408430576324,0.017648432882688938,0.0037478538919705896
1761140455121185800,1.116185791015625,0.038784780946373935,-0.0034227044576779007,0.013699384729657321
1761140455131244500,1.12624462890625,0.03385024715363979,-0.006937032721564173,-0.011936969033861532
1761140455141304800,1.136304931640625,0.0564455253213644,-0.0024095453597605225,-0.00260250151543878
1761140455151363600,1.146363525390625,0.0510603251516819,-0.0006238675193861126,0.010488395927054807
1761140455161422800,1.1564228515625,0.039841012001037596,0.008539627346303313,-0.005783414840186014
1761140455171483000,1.16648291015625,0.042534488868713374,0.010301120593491942,-0.00995776878222823
1761140455181541600,1.176541748046875,0.04627425991892815,0.0016646452765911816,0.01111243697637692
1761140455191601000,1.186600830078125,0.044781391012668606,0.016652864240389316,0.0002357267183251679
1761140455201660700,1.19666064453125,0.043881227302551264,0.010240951371472328,-0.005035254220850765
1761140455211719700,1.2067197265625,0.05181026673614979,-0.0025680055907927454,0.00002883336883969605
1761140455221778700,1.21677880859375,0.03804185362458229,0.004093680788110942,-0.004629678227799013
1761140455231838700,1.226838623046875,0.02711947759389877,0.011794354825932532,0.0005870426403358579
1761140455241897700,1.236897705078125,0.05674889218211174,-0.0003021247517317533,-0.008093774141790345
1761140455251957800,1.246957763671875,0.05510521662831306,0.0005615428728982806,-0.007020272291917353
1761140455262016800,1.257016845703125,0.041188334956765174,0.002263396621029824,-0.0018957962844986468
1761140455272075800,1.26707568359375,0.04463642958402633,0.0025705994066782295,0.0022870149586349726
1761140455282135800,1.2771357421875,0.045537762337923046,-0.0014768128206022082,0.010907863448141143
1761140455292194800,1.28719482421875,0.041648938205838204,0.011300634758546948,-0.01061364800822921
1761140455302253800,1.29725390625,0.04374386465847492,0.0021432225737720726,-0.007938400916988029
1761140455312313900,1.30731396484375,0.03910568346381187,0.0008046309137716889,0.003294968158472329
1761140455322372600,1.31737255859375,0.04179857580959797,-0.00547064996343106,0.0016103852055501192
1761140455332432000,1.327431884765625,0.03985562504827976,0.0037401729090139266,-0.0025920623198151587
1761140455342491600,1.33749169921875,0.04045183737576007,0.0038910343554802236,-0.00019247209848836062
1761140455352550700,1.347550537109375,0.027584757018089292,-0.002240983859822154,0.004509577245777473
1761140455362609700,1.357609619140625,0.04105155683457851,-0.002427208880614489,0.002352746271761134
1761140455372669700,1.367669677734375,0.049883682587742804,-0.0020539003225043414,-0.005102328107692301
1761140455382728700,1.377728759765625,0.048240591555833816,-0.006529365236125886,-0.027160713786585255
1761140455392787700,1.38778759765625,0.03073416095972061,-0.002747307680454105,-0.009652319562248886
1761140455402847700,1.39784765625,0.04554886825382709,0.0004749605679884553,-0.001646799092646688
1761140455412906800,1.40790673828125,0.04525310017764568,-0.00148695062212646,-0.006841518191527575
1761140455422965800,1.4179658203125,0.03762392047345638,-0.005228785765264183,-0.0010147482668049633
1761140455433025800,1.42802587890625,0.03897065890729427,-0.02120912103895098,0.0033548177200835197
1761140455443084800,1.438084716796875,0.046751229780912396,-0.00882962326882407,-0.003881179681746289
1761140455453143800,1.448143798828125,0.04211597119569778,0.007984897806681691,-0.00013108816691674292
1761140455463203600,1.45820361328125,0.059628247010707854,-0.0064013184096664184,-0.002324972348846495
1761140455473262800,1.468262939453125,0.04212123189270496,-0.01710459006326273,-0.0020358258096966893
1761140455483321600,1.478321533203125,0.05019990893006324,-0.0032467999015003443,-0.01010767124746926
1761140455493381600,1.488381591796875,0.03777881877422332,-0.011685304960887878,-0.001293747871275991
1761140455503440600,1.498440673828125,0.03687514793276787,-0.010003471087478101,0.00760268442290835
1761140455513500700,1.508500732421875,0.035818332356214524,0.001823306437022984,0.0011981237433850765
1761140455523560000,1.518559814453125,0.04553367068469524,-0.0008361402968876064,-0.011596128840092569
1761140455533618700,1.52861865234375,0.04792144260406494,0.022563330393191427,0.008421124666323885
1761140455543677700,1.538677734375,0.05494096597731113,0.006650945789180696,0.005250276077864691
1761140455553737700,1.54873779296875,0.03652677288651466,0.0613136062817648,0.06250593047202564
1761140455563796700,1.558796630859375,0.05373918897211551,2.694295490582287,1.5409851407833397
1761140455573856800,1.568856689453125,0.02560848850905895,5.065104876974225,2.8615871167153117
1761140455583915800,1.578915771484375,0.030103461840748785,2.044086638367921,1.1557196759629993
1761140455593974800,1.588974853515625,0.053311318948864934,0.6822685626894235,0.24099030140917746
1761140455604034600,1.59903466796875,0.020699673679471016,0.6453010602980852,0.23296368335261938
1761140455614093800,1.60909375,0.04719721998274326,0.7980006819769739,0.5136243894362822
1761140455624152600,1.619152587890625,0.03568681493103504,0.8459408292815088,0.2441384267091751
1761140455634212600,1.629212646484375,0.0503717583656311,0.7388046158384531,0.29454032448474315
1761140455644271600,1.639271728515625,0.05037935715019703,0.2386971489707008,0.1854037675373256
1761140455654330600,1.64933056640625,0.04663724801242351,0.10363609636761248,0.06682748346556909
1761140455664391000,1.659390869140625,0.05874971061050892,0.3940632133798673,0.2299657801782712
1761140455674449700,1.66944970703125,0.04109188884496689,0.8794941393151878,0.5474626173585653
1761140455684509000,1.679509033203125,0.039892449927330015,1.239177346046269,0.8475535251751541
1761140455694568700,1.689568603515625,0.038996962392330164,1.0905573948964475,0.9737002171017229
1761140455704627700,1.699627685546875,0.049183425363898275,0.618128391212225,0.7265669194255023
1761140455714686700,1.709686767578125,0.040516719305515286,0.24434790474139154,0.43197614339515567
1761140455724746800,1.719746826171875,0.039033787271380425,0.057755347544606775,0.2180218790801242
1761140455734805800,1.7298056640625,0.055957449543476104,0.010701463289000093,-0.012890643896348773
1761140455744864800,1.73986474609375,0.034276948133110996,-0.0562780963325873,-0.3474006847957149
1761140455754924800,1.7499248046875,0.030367665734887122,-0.21789154896503313,-0.6153029585279524
1761140455764983600,1.759983642578125,0.030223288828134534,-0.3023985271718353,-1.0825134238462895
1761140455775042800,1.770042724609375,0.0623971272021532,-0.1082079708604142,-1.2465686253413557
1761140455785102800,1.780102783203125,0.04130407029092312,-0.015865239260345696,-1.1933983953636138
1761140455795161600,1.79016162109375,0.0351700975805521,0.12732170878900215,-1.0007128002550452
1761140455805220900,1.800220947265625,0.04759235678017139,0.35221517240535466,-0.5412084158020094
1761140455815280600,1.81028076171875,0.05148351899981499,0.40424207756686953,-0.11251979704438708
1761140455825340000,1.82033984375,0.04026128323972225,0.3704717272490263,0.21582109936652705
1761140455835400200,1.830400146484375,0.06256605402827263,0.0170078516905196,0.4075721718376502
1761140455845459200,1.840459228515625,0.044617724883556364,-1.238969110123068,-0.0716097219065763
1761140455855518200,1.850518310546875,0.06243336755931377,-1.6910070676855742,-0.1843119537126273
1761140455865578200,1.860578125,0.03640226972401142,-1.7493486358866095,-0.2522388406543061
1761140455875637000,1.870636962890625,0.03670855919420719,-1.722417812732607,-0.3635434623558074
1761140455885696300,1.8806962890625,0.056441433668136594,-1.7112608972936867,-0.4946071158858016
1761140455895756000,1.890756103515625,0.013778934505581856,-1.868729779201001,-0.45440947246681895
1761140455905815000,1.90081494140625,0.08650339445471764,-2.1798925545215604,-0.31947927970178425
1761140455915874000,1.9108740234375,0.039815293037891386,-2.350431199751794,-0.46955078136678785
1761140455925934000,1.92093408203125,0.05732464624345302,-2.50500187599957,-0.6027794309109449
1761140455935993000,1.9309931640625,0.04789630816280842,-2.467451313023269,-0.6418294386647642
1761140455946052000,1.941052001953125,0.0398147085160017,-0.26495032859146594,-0.06506420925324782
1761140455956112100,1.951112060546875,0.035624855610728264,0.12496840539481491,0.02960396048654802
1761140455966171100,1.961171142578125,0.04535071533322334,-0.03337832792610861,-0.014324375627050176
1761140455976230100,1.971230224609375,0.037866497057676314,-0.0001765256106853485,-0.0037344190216623244
1761140455986290200,1.981290283203125,0.04250584729611873,-0.0046883039467036725,-0.0053763227434828875
1761140455996349200,1.99134912109375,0.030683892077207564,-0.00873894931068644,-0.006487170062214135
1761140456006408200,2.001408203125,0.041756490233540534,-0.0060008661163039505,-0.011843226335803047
1761140456016468000,2.011468017578125,0.03277589592039585,-0.01833693573665805,-0.007167270414019003
1761140456026527200,2.02152734375,0.05073007028400898,-0.021523529883520676,-0.01095166605724953
1761140456036586000,2.0315859375,0.03621346915364265,-0.000255244269547984,0.007623215754283591
1761140456046646000,2.04164599609375,0.04549158510863781,-0.014510755911469459,-0.006421731010032817
1761140456056705000,2.051705078125,0.03890636149942875,-0.009047211542259901,0.0037287199332378803
1761140456066764000,2.061763916015625,0.034714170506596566,0.0009176902336534113,-0.003095390465762466
1761140456076824000,2.071823974609375,0.048479661008715626,-0.013468507716385646,0.011298661997169255
1761140456086883000,2.081883056640625,0.041597500279545785,-0.012150219058897346,-0.004187889277050272
1761140456096942000,2.091942138671875,0.03650923722982406,-0.013934088534675537,-0.008413069224031641
1761140456107002000,2.102002197265625,0.04698503853678703,-0.007896150944149121,-0.004277065397845581
1761140456117061000,2.11206103515625,0.03531096735596657,0.008312796320486813,0.004106375872902572
1761140456127120100,2.1221201171875,0.05356617049276829,-0.002937048965739086,-0.0008322952388320117
1761140456137180200,2.13218017578125,0.04398819480836391,0.0006468922019470483,-0.007827551820501684
1761140456147239200,2.1422392578125,0.04698445401489734,-0.0006890873758587986,-0.017747518476145342
1761140456157298200,2.152298095703125,0.028879473003745076,-0.01938175034816377,-0.0006162230690475553
1761140456167358200,2.162358154296875,0.03845686416625976,0.00136111401906237,0.00925844314014539
1761140456177417000,2.1724169921875,0.03815525087118148,-0.00039796807533130045,-0.003692032051505521
1761140456187476200,2.182476318359375,0.042046997612714763,-0.006541831992054358,-0.005262907230574637
1761140456197536000,2.192535888671875,0.044888943040370936,-0.007072358672181144,0.011502075614780187
1761140456207595000,2.202594970703125,0.04010112424194812,-0.011268833114486187,-0.012993218354834243
1761140456217655300,2.2126552734375,0.0408516503483057,-0.010493903219234197,-0.003412648854544386
1761140456227714000,2.222714111328125,0.047884617725014685,-0.004642071918491274,0.0018421024690382182
1761140456237773000,2.23277294921875,0.04115092555582523,-0.0216933243593201,-0.00577123121204786
1761140456247832000,2.24283203125,0.05446574968099594,-0.022909330819267777,-0.006597334172111004
1761140456257892000,2.25289208984375,0.04309387631714344,-0.0019552622536197304,-0.021842770166834814
1761140456267951000,2.262951171875,0.03680734339356422,-0.016357224028371274,0.012300495983473957
1761140456278011100,2.27301123046875,0.04009878615438938,0.0055061505350749934,0.0055257959504611785
1761140456288070100,2.283070068359375,0.03755553141236305,-0.007119905874645337,0.009264260959578677
1761140456298129200,2.293129150390625,0.05072656315267086,-0.01845215961416252,-0.0061946168564260004
1761140456308189200,2.303189208984375,0.05775894600749015,-0.01023103276565671,-0.01928057326232083
1761140456318248000,2.313248046875,0.034414310777187346,-0.019382371402671558,-0.001095439687045291
1761140456328307200,2.32330712890625,0.05042319629192352,-0.01978036687746644,-0.01926208775755949
1761140456338367200,2.3333671875,0.037706922581791875,-0.0006953709861729294,0.006622158086113631
1761140456348426000,2.343426025390625,0.05027414321005344,-0.014967541501950472,0.006530287684733048
1761140456358485200,2.3534853515625,0.03486147002279758,-0.008609833905147388,-0.0034459940017201006
1761140456368545000,2.363544921875,0.039050153884291644,-0.0053155050674919034,0.015327378657134249
1761140456378604300,2.373604248046875,0.048774844563007354,-0.007889529407117516,-0.010884062447445466
1761140456388663000,2.3836630859375,0.03426116604208946,-0.00865943606738001,-0.011378567966120317
1761140456398723000,2.39372314453125,0.060146133404970166,-0.007912325760815292,-0.002844648841395974
1761140456408782000,2.403781982421875,0.047128246399760244,-0.012745116212125866,0.004939986285986378
1761140456418841000,2.413841064453125,0.04159107053875923,-0.008626611510012299,-0.0008708097514696419
1761140456428901000,2.423901123046875,0.0567027149528265,0.0029433051765896377,0.007116572273243218
1761140456438960000,2.433960205078125,0.0400935254573822,-0.003219546568393707,0.00041747649339959024
1761140456449019100,2.44401904296875,0.04428104027509689,-0.006428599142236635,0.0013378792739473283
1761140456459079000,2.454078857421875,0.031411037307977674,-0.002456873366516083,-0.002260629275208339
1761140456469138200,2.46413818359375,0.04682195692956447,-0.016524305957276372,-0.006707014224817976
1761140456479197000,2.474197021484375,0.051312254086136815,0.001331349068460986,0.0035900512480642644
1761140456489257200,2.48425732421875,0.049964346608519554,-0.009686514092795551,0.005975229351548477
1761140456499316200,2.494316162109375,0.051312838608026504,-0.006708238067524507,0.00848880134136416
1761140456509375000,2.504375,0.05310732080936432,-0.00702734135352075,-0.011980534180952235
1761140456519435300,2.514435302734375,0.034553426986932756,0.002232837085984647,-0.0021858013401739296
1761140456529494000,2.524493896484375,0.04592588487267494,-0.005400489070359617,0.0005333122922573238
1761140456539553300,2.53455322265625,0.039188685572147365,-0.013504273149510845,-0.006219870028691366
1761140456549613000,2.544613037109375,0.04741875377893447,0.00034641141803003846,-0.009543616757076233
1761140456559672000,2.554672119140625,0.05280629203617573,0.0034955870307981965,-0.005317605693032965
1761140456569731000,2.56473095703125,0.05235737922489643,-0.01607809655973688,0.011148914795555173
1761140456579791000,2.574791015625,0.050561143457889555,-0.00855448698871769,0.00685019468832761
1761140456589850000,2.58485009765625,0.04906418289840221,-0.0018408055610954761,0.008742620838806033
1761140456599909000,2.5949091796875,0.03245382435917854,0.0071780566695146255,0.003197709195921197
1761140456609969200,2.60496923828125,0.04098141420781612,-0.009913198988139629,0.012790955514693631
1761140456620028000,2.61502783203125,0.03185527394413948,-0.004089780931128189,0.01384520467482507
1761140456630087200,2.625087158203125,0.03769055596888065,-0.01711830806136131,0.00046259427675977345
1761140456640147200,2.635147216796875,0.04741816925704479,-0.0005642645529471337,0.0004534611222334206
1761140456650206200,2.645206298828125,0.05265139373540878,-0.0003688241792377084,-0.021755530274799092
1761140456660265200,2.65526513671875,0.05040449159145355,-0.003423928300384432,0.01766953960279934
1761140456670325000,2.665324951171875,0.04262275167405605,-0.001735025365371257,0.01973664646674879
1761140456680384300,2.67538427734375,0.044266427227854725,-0.0020035401084460315,0.00014444083883427084
1761140456690443000,2.685443115234375,0.04770692307054996,-0.0045085999982431525,-0.008430385685013607
1761140456700503000,2.6955029296875,0.04995265617072582,-0.01712871072436683,-0.008595284789986907
1761140456710562000,2.70556201171875,0.05952770924568176,0.0019435992152895777,-0.010759148292988538
1761140456720621000,2.71562109375,0.056384735044836994,-0.01746126714698039,-0.004584651775984093
1761140456730681000,2.72568115234375,0.048907531031966205,-0.006667458532564342,-0.008244900449737906
1761140456740740000,2.735739990234375,0.03977729911506176,-0.009727266228292137,-0.009422785122692585
1761140456750799000,2.745799072265625,0.050696752536296845,0.002192221947805956,-0.000049072439270094034
1761140456760859100,2.755859130859375,0.02241524542570114,-0.004733266466436907,-0.011042504412168636
1761140456770918100,2.765918212890625,0.05099661226570606,-0.009161777832638471,-0.009889233590662478
1761140456780977000,2.775976806640625,0.04501169263720512,-0.005698522168863565,0.003510401007439941
1761140456791037200,2.786037109375,0.05204758262336254,-0.008242553229024634,0.0008684899302199482
1761140456801096200,2.79609619140625,0.05518880325853824,-0.0056776072449982165,-0.005494058238482103
1761140456811155200,2.8061552734375,0.038131285473704334,0.0026024649828206747,-0.006747391900978982
1761140456821215200,2.81621533203125,0.04232172290086746,-0.010611529116379097,-0.00626225699884817
1761140456831273500,2.8262734375,0.03933013986945152,-0.008231894837692379,-0.002000517034297809
1761140456841332700,2.836332763671875,0.03439385251104832,-0.0009231244605965911,0.005882966224523261
1761140456851392800,2.846392822265625,0.030653496938943862,-0.004455527237290516,0.0023971151364501563
1761140456861451500,2.856451416015625,0.03768704883754253,-0.001624304133048281,-0.003260947157861665
1761140456871511800,2.86651171875,0.036489948007464405,0.002380410596821457,-0.0026795305407140402
1761140456881570600,2.876570556640625,0.04217734599411487,-0.00003339994610287249,0.004722745072422549
1761140456891629600,2.886629638671875,0.052951253464818,-0.004744271917641162,0.016767174802441148
1761140456901689600,2.896689697265625,0.04352291538417339,-0.007031697868229821,-0.01628063339451328
1761140456911748600,2.90674853515625,0.05025251590013504,-0.015382259782683103,-0.000810923657240346
1761140456921807600,2.9168076171875,0.03633446518480778,0.0014659900324884801,-0.001468054125411436
1761140456931867600,2.92686767578125,0.05399287147223949,-0.0038071189316920932,-0.007119750611018389
1761140456941926700,2.9369267578125,0.05159925433397293,0.00020871998039074242,-0.009452577472757547
1761140456951985700,2.946985595703125,0.02287058797776699,-0.009876036182371898,0.004370671098586172
1761140456962045700,2.957045654296875,0.03379413305222988,-0.015891204818664118,0.011063574599660932
1761140456972104400,2.9671044921875,0.03768529527187347,0.005045830413792282,-0.020314455487858502
1761140456982163700,2.977163818359375,0.03589022854864597,0.0010934669256675987,-0.006116254390589893
1761140456992223700,2.9872236328125,0.035437808606028555,-0.006630377925187349,-0.0010222009208984673
1761140457002282500,2.997282470703125,0.027655484166741368,-0.00927069070036523,-0.000617017653491348
1761140457012341800,3.007341796875,0.04112228398323059,-0.0027501389583572742,0.010506497839326038
1761140457022401500,3.017401611328125,0.04441431126594543,-0.0013851524817757308,-0.0018747169638518243
1761140457032460800,3.027460693359375,0.030196400821208953,0.005483134985668585,-0.0055230651372577995
1761140457042519600,3.03751953125,0.04455810365080833,-0.006531310598039999,-0.002962411735858768
1761140457052579600,3.04757958984375,0.049497898140549654,-0.006465341822896153,0.000970689929369837
1761140457062638800,3.057638916015625,0.0491997919768095,0.003954089654330164,0.003858045401331037
1761140457072697600,3.067697509765625,0.03423603160083294,-0.005365856148395687,-0.004735449290368706
1761140457082757600,3.077757568359375,0.028998130947351455,-0.008709741482511163,-0.004727667842712253
1761140457092816600,3.087816650390625,0.03513151913583278,-0.008617770616430789,-0.013027029292890801
1761140457102875600,3.097875732421875,0.0533867222726345,-0.004367474494501948,-0.012690509081212803
1761140457112935400,3.107935302734375,0.04096797020435333,-0.01684239546312019,0.00034140644934959707
1761140457122994700,3.11799462890625,0.034683190846443175,-0.01892986012850888,-0.011158632471971214
1761140457133053400,3.128053466796875,0.034384500160813326,-0.0045572705787140875,-0.007523289910610765
1761140457143113700,3.13811376953125,0.04381050015389919,0.005341251430101692,-0.0029354323973879216
1761140457153172700,3.1481728515625,0.045157823109626766,-0.0035222923746332526,0.0013807685676030814
1761140457163231500,3.1582314453125,0.034383331117033955,-0.018199719223054123,-0.00972049856078811
1761140457173291800,3.168291748046875,0.041268414455652234,-0.0046251207836903625,-0.007280886856326833
1761140457183350500,3.1783505859375,0.03917290348112583,0.0027409327385947107,0.00437518287692219
1761140457193409800,3.188409912109375,0.024656886872649192,0.0067827828747686,-0.010182179522095247
1761140457203469800,3.1984697265625,0.043508886858820914,-0.0031226346657145768,-0.000787241387553513
1761140457213528600,3.208528564453125,0.050093525946140284,-0.011095403643185273,-0.0035261282995343204
1761140457223587800,3.218587890625,0.042163901990652085,-0.004804569003824144,0.009905828532436862
1761140457233647600,3.228647705078125,0.03767477387785911,-0.002742631505336612,-0.004028835390973836
1761140457243706600,3.23870654296875,0.04649988536834716,-0.005177594434143975,0.010186042846459895
1761140457253765600,3.248765625,0.04096329402923584,-0.012523527617007493,-0.005579243170749396
1761140457263825700,3.25882568359375,0.03438040850758552,-0.019524346289783716,-0.010565525417029858
1761140457273884400,3.268884521484375,0.03378185809254646,-0.003085736721428111,-0.012963964860886334
1761140457283943700,3.278943603515625,0.03961889368295669,-0.025864828757150096,0.011193320192862302
1761140457294003700,3.289003662109375,0.0400672219723463,-0.00565130375996232,-0.008625360267842188
1761140457304062700,3.299062744140625,0.04620119468271732,0.00033137824567966163,0.004184327346784994
1761140457314121700,3.309121826171875,0.03512801200449466,-0.005878901970759034,0.004731686430703848
1761140457324181500,3.319181396484375,0.03707330085337162,-0.017715059244958684,0.002331959212059155
1761140457334240800,3.32924072265625,0.04231061698496341,-0.02169621043615043,-0.010156542757339775
1761140457344299500,3.339299560546875,0.046053310644626616,-0.002937304694065824,-0.01059714439800009
1761140457354359600,3.349359619140625,0.03917348800301552,-0.001985894853901118,0.0009383311628829688
1761140457364418800,3.359418701171875,0.040970308291912075,0.0014338778611738233,-0.004823301103757694
1761140457374477600,3.3694775390625,0.03917582609057426,-0.009987177539803088,0.0029982867668382823
1761140457384537600,3.37953759765625,0.028402503141760824,-0.011594366141268983,-0.0017093429348431527
1761140457394596600,3.3895966796875,0.051746553850173946,-0.02098807129994966,0.0007014354007784276
1761140457404655600,3.399655517578125,0.04650573058724403,-0.00020637275967746972,-0.007342261654743924
1761140457414715600,3.409715576171875,0.03378478070199489,-0.009796641670074314,0.013031422340217976
1761140457424774700,3.419774658203125,0.040219197663664816,-0.01504014094728045,-0.00011747976667247712
1761140457434833700,3.429833740234375,0.04530687619149685,0.004112714282143861,-0.017816117599792777
1761140457444893700,3.439893798828125,0.042912674531340594,0.007478491787659004,-0.014906002306751907
1761140457454952700,3.44995263671875,0.02675181332528591,-0.000741740011703223,-0.012626750529464334
1761140457465011700,3.46001171875,0.033036592683196066,-0.009986812213622033,-0.0051201742916367945
1761140457475071700,3.47007177734375,0.04769873976409435,-0.014484370228042826,0.003097746819630265
1761140457485130500,3.480130615234375,0.0484457587391138,-0.004419286880129948,-0.00997650088216178
1761140457495189800,3.490189697265625,0.04141103779673576,-0.001238647550018504,0.0032617691417690365
1761140457505249800,3.500249755859375,0.05413315672576427,-0.004071733817784116,-0.008493879375280813
1761140457515308500,3.51030859375,0.031689854249358176,-0.00044262920096516605,-0.0003931366365868598
1761140457525367800,3.520367919921875,0.0430652347445488,-0.003188923101266846,-0.007713031195895746
1761140457535427600,3.530427490234375,0.05219371309578418,-0.008876522017316892,0.0019187113692052662
1761140457545486600,3.540486572265625,0.025407412979006765,-0.0054261532345786685,-0.0006643365270923823
1761140457555545600,3.550545654296875,0.0375274743616581,-0.009903563510114326,-0.00025447708456777034
1761140457565605600,3.560605712890625,0.03528291030526161,0.01095730121359229,0.0018977507795672863
1761140457575664600,3.57066455078125,0.03752630531787872,0.0009453910913318395,-0.00807315147886984
1761140457585723600,3.5807236328125,0.034682606324553486,-0.013820819152239708,-0.010118886761227621
1761140457595783700,3.59078369140625,0.026451953595876692,0.0014181779685430228,0.007010655080201104
1761140457605842700,3.6008427734375,0.04411211344897747,-0.002154383288603276,-0.009553106104629113
1761140457615901700,3.610901611328125,0.04770341593921184,0.0017328151419758796,-0.0022233477384317663
1761140457625961500,3.62096142578125,0.039324879172444344,-0.00696371066593565,-0.010214857948990538
1761140457636020700,3.631020751953125,0.04830255087614059,-0.02113607406904921,-0.003172720885137096
1761140457646079500,3.64107958984375,0.05129471842944622,0.000753777509368956,-0.004811163141392171
1761140457656139500,3.651139404296875,0.04890110129117965,-0.006799460014933719,-0.006032768225064501
1761140457666198800,3.66119873046875,0.042917350706458086,0.0042270157110411676,-0.0026983357058838007
1761140457676257500,3.671257568359375,0.053690089133381844,-0.010616689348686486,0.0009422492861747741
1761140457686317600,3.681317626953125,0.043667292290925974,-0.016769284561136737,-0.0008371723433490843
1761140457696376600,3.69137646484375,0.044864393121004105,-0.022281417312426492,-0.0054387021888978775
1761140457706435600,3.701435546875,0.05623743552863598,-0.012918737479671835,-0.0003544759934768081
1761140457716496000,3.711495849609375,0.05429273120164871,0.005898099861573428,-0.005303677632380276
1761140457726554600,3.7215546875,0.05399462503790855,-0.0038282713175751266,-0.0055018579524476075
1761140457736613600,3.731613525390625,0.04995148712694645,-0.003119648124184459,0.00009499394022859632
1761140457746673700,3.741673583984375,0.024213234758377073,0.005380752323428169,0.008710481268027797
1761140457756732700,3.751732666015625,0.03498948031663895,-0.0059259194502606985,0.0038114663132466373
1761140457766791700,3.761791748046875,0.03648410278856754,-0.006779796333238482,-0.0064547290973365305
1761140457776851700,3.771851806640625,0.04171908083260059,0.0007195647125132382,-0.022170924408966675
1761140457786910500,3.781910400390625,0.043212534260749814,0.005834222578816116,0.004471428059320897
1761140457796969700,3.7919697265625,0.04665361462533474,-0.003617167583853006,-0.0041663076329045
1761140457807029800,3.80202978515625,0.04021861314177513,-0.00707945513324812,-0.004964892398379743
1761140457817088500,3.812088623046875,0.043806993022561073,-0.015796357008907944,-0.013312769165402277
1761140457827147800,3.822147705078125,0.039167058262228965,-0.02204216519645415,-0.0003480005869176239
1761140457837208300,3.832208251953125,0.04185936608612537,-0.003775719146430492,0.0025734946166630834
1761140457847267300,3.842267333984375,0.032280805879831315,0.0021986060228198767,-0.008312494926387444
1761140457857326300,3.852326416015625,0.03512567391693592,-0.0018071681529749184,-0.0024364607661496846
1761140457867386400,3.862386474609375,0.03243161252737045,-0.026160925626894458,-0.000331259514670819
1761140457877445400,3.8724453125,0.040514381217956544,0.005389374021301046,0.003424969480000436
1761140457887504400,3.88250439453125,0.042758945274353026,-0.009356862013321369,0.006768763482570648
1761140457897564400,3.892564453125,0.04829261400401592,-0.0007644633001647889,0.007543200187478214
1761140457907623200,3.902623046875,0.031081951484084127,0.0010539751654956488,-0.002322314600879326
1761140457917682400,3.912682373046875,0.04125613949596882,-0.007587276791222393,-0.022455604835553093
1761140457927742200,3.9227421875,0.04350011903047561,-0.012423263846617192,-0.005761422204086557
1761140457937801500,3.932801513671875,0.03452478541433811,0.009667434932989999,-0.017577203410537912
1761140457947860200,3.942860107421875,0.03542144199311733,0.0012296513928100467,0.014932625452196225
1761140457957920300,3.952920166015625,0.04933832366466522,-0.0011851546639576555,0.0038366829528938976
1761140457967979500,3.9629794921875,0.04709492865204811,-0.0017270886540878562,0.013273176940530538
1761140457978038300,3.973038330078125,0.041108839979767796,0.0025014705600682643,0.0028090204055886713
1761140457988098300,3.983098388671875,0.04649696275889873,-0.019277486256090923,0.024907719828560947
1761140457998157300,3.9931572265625,0.04320785808563232,-0.028166383697791023,0.0011344199905637651
1761140458008216300,4.00321630859375,0.02689560571014881,-0.017089675621921197,-0.005556839542696253
1761140458018276400,4.0132763671875,0.05248363595306873,-0.0002956128125544637,0.0003304101312998682
1761140458028335400,4.02333544921875,0.04290624479055404,0.0003873644829262048,0.0006366813351865858
1761140458038394400,4.033394287109375,0.0511386510848999,-0.0021545750848483295,0.0045278618211392315
1761140458048454400,4.043454345703125,0.031685178074240684,-0.006742341266525909,0.005298225139128044
1761140458058513400,4.053513427734375,0.03452653898000717,-0.009598570947861299,0.006491380446450784
1761140458068572200,4.063572265625,0.03961012585461139,-0.0019116331744473427,-0.0012086086047813295
1761140458078632400,4.073632568359375,0.04753799624443054,0.005233443674072623,0.0029021511822938917
1761140458088691500,4.08369140625,0.04709025247693061,0.003660988459270447,-0.0047290743485093115
1761140458098750500,4.09375048828125,0.04783785597383976,-0.004903179673245176,0.006710274760983884
1761140458108810500,4.103810546875,0.04933189392387867,-0.008246900610579177,0.019219308061758054
1761140458118869200,4.113869140625,0.05008066646456718,0.0016824366616085171,-0.00012695084791630506
1761140458128928500,4.123928466796875,0.05022971954643726,0.013579393345490097,-0.006970286537194624
1761140458138988300,4.13398828125,0.037357963013648986,-0.003707905474072322,-0.007555301617225631
1761140458149047300,4.14404736328125,0.046187166157364845,-0.007889264545636251,0.001182816576398909
1761140458159106300,4.154106201171875,0.04184475303888321,-0.014629167259903623,-0.0012778379160910845
1761140458169166300,4.164166259765625,0.036007132926583287,-0.007837223831145093,-0.014795308473892509
1761140458179225300,4.174225341796875,0.03151917385756969,-0.006988607645174488,-0.006961838369257747
1761140458189284400,4.184284423828125,0.03690612759292126,-0.005081047857645899,-0.012128226422797888
1761140458199344400,4.194344482421875,0.04184709112644195,-0.006137205847073346,-0.014003281313367187
1761140458209403400,4.2044033203125,0.04289689244031906,0.0012643299805466086,-0.003996960681676864
1761140458219462400,4.21446240234375,0.05217325482964515,0.007612566496105864,0.007648651589639484
1761140458229522400,4.2245224609375,0.043943186622858045,-0.004228349151602015,0.008194266241043805
1761140458239581400,4.23458154296875,0.028680151039361952,0.004500471490714699,0.0012270027779974042
1761140458249640400,4.244640380859375,0.04469079011976718,0.013326578495046123,-0.004008696785243228
1761140458259700200,4.2547001953125,0.039901802277565,-0.0036578375209588556,-0.01249481297917664
1761140458269759500,4.264759521484375,0.04633914184868335,0.0012523564149625598,0.0005826587261632085
1761140458279818200,4.274818359375,0.04050619791150093,-0.00001207403028383851,-0.005825692212488502
1761140458289878300,4.284878173828125,0.03496609944105148,-0.0038652514602523294,-0.0016924191995058208
1761140458299937300,4.294937255859375,0.0436444959372282,-0.005936806170456111,0.004451453850371763
1761140458309996300,4.304996337890625,0.041995559686422344,0.0024297296312637624,-0.002817961763869971
1761140458320056300,4.315056396484375,0.06174421625137329,0.00009859240311197936,0.005363207533583045
1761140458330115300,4.325115234375,0.04199088351130485,-0.007520157238608226,-0.0033992779163178055
1761140458340174300,4.33517431640625,0.051717912277579305,-0.012848302591964601,-0.0030102511992678043
1761140458350234400,4.345234375,0.04707973108291626,-0.009285714739561081,-0.010594395318487658
1761140458360293400,4.35529345703125,0.044833997982740396,0.006720312097808346,0.004272736282600089
1761140458370352400,4.365352294921875,0.05515665455460548,0.0021835911167785525,-0.017932190860668197
1761140458380411400,4.375411376953125,0.043783612146973606,0.008927083160774781,-0.001335002330271527
1761140458390471400,4.385471435546875,0.04917231944799423,0.015346567414794116,-0.004222960590431466
1761140458400530400,4.395530517578125,0.048123687177896494,-0.012867107757134363,-0.012768369223549961
1761140458410590500,4.405590576171875,0.05635317086279392,-0.00724090190581046,-0.006731500212103128
1761140458420649200,4.415649169921875,0.0443809935182333,0.005957437966531142,-0.009323717795545234
1761140458430708500,4.42570849609375,0.040787352940440176,-0.00917695713546127,0.012347047672094777
1761140458440767200,4.435767333984375,0.042435704669356346,0.008360297857178374,0.00008756868559867143
1761140458450827300,4.4458271484375,0.03674947572648525,-0.0033490638327319175,-0.01011766291852109
1761140458460886300,4.45588623046875,0.040194063222408295,-0.015121672617737203,-0.005683699059067294
1761140458470945300,4.4659453125,0.053961307290196416,-0.0070693629974965,-0.0011574081405065953
1761140458481005300,4.47600537109375,0.05261223076879978,-0.0035664237773045896,0.01239171793088317
1761140458491064300,4.486064208984375,0.04303600865006447,-0.0062589690632186825,0.0019601850239094345
1761140458501123300,4.496123291015625,0.047827334579825395,-0.010289293158380314,-0.0026029581731650975
1761140458511183400,4.506183349609375,0.04034486986994743,-0.0023146884168498217,0.0018942801808472722
1761140458521242400,4.516242431640625,0.044534722775220865,-0.012032702759606762,-0.01814388824943453
1761140458531301400,4.52630126953125,0.04169102378189563,-0.007023642425937578,-0.008387669921293854
1761140458541361400,4.536361328125,0.03675239833593368,-0.0021897559960838407,0.009890923224249854
1761140458551420400,4.54642041015625,0.03974398136734962,-0.0020241353719029575,-0.006351971975760534
1761140458561479400,4.5564794921875,0.0385468805372715,-0.00606530052148737,0.0020253866140730677
1761140458571539500,4.56653955078125,0.04168868569433689,-0.0015060937140136956,-0.0067775587103795255
1761140458581598200,4.57659814453125,0.04916705875098705,-0.006811333115817979,-0.01716443962487392
1761140458591657500,4.586657470703125,0.040489831298589705,-0.012276557985460386,-0.007242198813753202
1761140458601717500,4.596717529296875,0.03450900332331657,0.003310649784794077,-0.007939085903577506
1761140458611776300,4.6067763671875,0.03032324207127094,-0.0010779131635092198,-0.009955485493596643
1761140458621835500,4.61683544921875,0.04244564154148102,0.013468772577866911,0.004560905574215576
1761140458631895300,4.626895263671875,0.04498772723972797,-0.0096134397234302,0.004137656927155331
1761140458641954300,4.636954345703125,0.03301379632949829,-0.021019069226412102,0.0033029779349919406
1761140458652013300,4.647013427734375,0.041992052555084224,-0.0114663832468912,-0.004504617942869663
1761140458662073300,4.6570732421875,0.041542555221915245,0.0002801869145594537,0.012330416197702287
1761140458672132400,4.66713232421875,0.037350948750972744,-0.0038279790566302834,-0.0064103784989565605
1761140458682191400,4.67719140625,0.05695172127783298,-0.002713524141861126,-0.0014134835271164773
1761140458692251400,4.68725146484375,0.04273731796443462,-0.0324783468790818,-0.004890128395427018
1761140458702310400,4.697310302734375,0.04588087668716907,-0.009507705193478613,0.009938735288195312
1761140458712369400,4.707369384765625,0.054261167019605636,-0.002758303998503834,-0.004530802696896717
1761140458722429200,4.71742919921875,0.051716158711910244,0.010216100058006121,-0.005379711143812164
1761140458732488400,4.727488525390625,0.04498363558650016,0.012901347953453659,0.0026734021940268576
1761140458742547200,4.737547119140625,0.037052842587232585,-0.016584347315132617,0.0010032130926381797
1761140458752607200,4.747607177734375,0.046779286831617355,-0.004376077926065773,-0.008034920094022527
1761140458762666500,4.75766650390625,0.053362756875157354,-0.002890670807054266,-0.007295856096595526
1761140458772725200,4.767725341796875,0.04962064773738384,0.010665369062311946,-0.005006238188920542
1761140458782785500,4.77778564453125,0.04138999500870704,0.005939893176686018,-0.003780504919402301
1761140458792844300,4.78784423828125,0.05845160444676876,0.004334175013098866,-0.00445403853310272
1761140458802903300,4.7979033203125,0.05351414804458618,-0.009120057582762091,-0.0008443784022703766
1761140458812963300,4.80796337890625,0.04438566969335079,0.009184784248890354,-0.005474741616658866
1761140458823022300,4.818022216796875,0.0517138206243515,-0.0039621633629314595,0.00038717268668115137
1761140458833081300,4.828081298828125,0.03779635443091392,-0.0028555264284368604,-0.015965311234490943
1761140458843141400,4.838141357421875,-0.02504734749495983,0.0033139742530416696,-0.0018548340864479541
1761140458853200400,4.848200439453125,0.07490940277278423,0.0017793759637512265,0.003075288392649963
1761140458863259400,4.85825927734375,0.06967150211930274,0.0050695948818698525,-0.01537861565402709
1761140458873319400,4.8683193359375,0.0077209496408700935,0.0012479177018627525,-0.009790184529824181
1761140458883378200,4.878378173828125,0.0547071572214365,0.0038027441506739705,0.002808956473506987
1761140458893437400,4.8884375,0.04093991315364837,0.005192636739648878,-0.014842517749639227
1761140458903496200,4.89849609375,0.028667876079678533,-0.005335689338995144,-0.010666620304482058
1761140458913556200,4.90855615234375,0.05769757120907306,-0.010272360289888456,0.011115231721661985
1761140458923615500,4.918615478515625,0.0386906729221344,-0.0010783972206991166,-0.008951523482287302
1761140458933674200,4.92867431640625,0.04811842648088932,0.00001676847171038389,0.003665107511961832
1761140458943734500,4.938734619140625,0.03839548936784267,0.006471470169583335,-0.01146024576704949
1761140458953793300,4.948793212890625,0.043782443103194235,-0.002961891146050766,-0.007102881674608215
1761140458963852300,4.958852294921875,0.05216331795752048,-0.007857006243849173,-0.02076497573433444
1761140458973912300,4.968912353515625,0.01909516109228134,0.006293245792156085,-0.0021404460947960615
1761140458983971300,4.978971435546875,0.047674189844727516,0.010424171584425494,0.0003568688799627125
1761140458994030300,4.9890302734375,0.056205286824703216,-0.0007257387249730527,-0.009166499673528596
1761140459004090400,4.99909033203125,0.015207506003975867,-0.01203551577120088,0.009195871898485346
1761140459014149400,5.0091494140625,0.05411211393773555,-0.006650571329845115,0.010761358516383915
1761140459024208400,5.01920849609375,0.06234159762263298,-0.0075554477476980535,0.00891431501074694
1761140459034268400,5.029268310546875,0.02313946804702282,-0.006888343874784186,-0.01040294613330625
1761140459044327200,5.0393271484375,0.04708148464858532,-0.0012793174871243535,0.0092686357405968
1761140459054386400,5.049386474609375,0.05576163471043109,-0.008774139355076477,-0.020837858307454733
1761140459064446500,5.059446533203125,0.021197686329483986,0.016308498648973182,-0.01086271826531738
1761140459074505200,5.069505126953125,0.06115034201145172,0.009924989890633151,-0.008742913099750876
1761140459084564500,5.079564453125,0.0632464375078678,-0.0017842348019592464,0.0022125249503180382
1761140459094624300,5.089624267578125,0.0396054496794939,0.003813740468723699,0.010785917568905278
1761140459104683500,5.09968359375,0.056963411715626716,-0.0014113920347299427,0.0003590243044309318
1761140459114742300,5.1097421875,0.04155190757215023,0.0065143411969300355,-0.000472184089012444
1761140459124802300,5.11980224609375,0.030030396604537962,-0.004332220518030226,-0.004719046144839376
1761140459134861600,5.129861572265625,0.04245031771659851,-0.010671104683354497,-0.0023467001234646887
1761140459144920300,5.13992041015625,0.04948445413708687,-0.010333059234870597,0.0013718089430127293
1761140459154980400,5.14998046875,0.04245148676037788,-0.01904755909088999,0.012078925654664636
1761140459165039400,5.160039306640625,0.03915712139010429,-0.023513233262859284,0.01042165083377622
1761140459175098400,5.170098388671875,0.027784663504362105,-0.009974592052865773,0.01677811632156372
1761140459185158100,5.180158203125,0.05501870738863945,0.007501744799083099,0.010110420326981694
1761140459195217400,5.190217529296875,0.04244856415092945,-0.004075962468329817,-0.005205432289140299
1761140459205276200,5.200276123046875,0.04649170206189155,0.010046753106778487,0.001776617751084268
1761140459215336400,5.21033642578125,0.04499474150240421,0.0031397684636060145,0.0021809516351204363
1761140459225395500,5.2203955078125,0.04963350721895694,-0.008046820594370365,-0.010208236411958933
1761140459235454200,5.2304541015625,0.04319850573539734,0.0069709623906295745,-0.003751899879425764
1761140459245514500,5.240514404296875,0.05621639274060726,0.010646509098215028,-0.006527922197710722
1761140459255573200,5.2505732421875,0.04454349060356617,0.007161470860894769,0.003223400759603828
1761140459265632500,5.260632568359375,0.049780806735157966,-0.0040610388938337565,0.012225604116357862
1761140459275691300,5.270691162109375,0.03361994552910328,-0.007800736878812313,-0.0032087420465890318
1761140459285751300,5.280751220703125,0.03885959974825382,0.005138952057342976,0.006303082199580967
1761140459295810600,5.290810546875,0.052177931004762645,0.0009377192415297031,-0.0042611280431970955
1761140459305869300,5.300869384765625,0.036166707402467725,-0.0013913812931627034,-0.008652960660820826
1761140459315929300,5.310929443359375,0.03272621155977249,0.0020422646836377677,-0.005118877383694052
1761140459325988400,5.32098828125,0.045592707395553586,0.008825586414523422,-0.003565136002516374
1761140459336047400,5.33104736328125,0.04619125781059265,0.0010017517879139632,-0.002446077977865934
1761140459346107100,5.341107177734375,0.03766366796195507,-0.0058235276548657565,0.004503732026880607
1761140459356166400,5.35116650390625,0.033027824854850764,-0.007552981795975938,0.006096106651704758
1761140459366225200,5.36122509765625,0.03901508257091045,-0.017521271972218526,0.00133647276815027
1761140459376285400,5.371285400390625,0.05038520236909389,-0.013449510754970834,0.007820948549779131
1761140459386344400,5.381344482421875,0.046940030351281165,-0.006821324786869809,0.019436576674785464
1761140459396403200,5.3914033203125,0.03751286131441593,-0.0028617278403602537,0.0034817594348452983
1761140459406463500,5.40146337890625,0.041403439012169835,-0.0076228960938751695,-0.006930849575949832
1761140459416522200,5.411522216796875,0.03317512437105179,-0.011735738240182399,0.0014621997733600437
1761140459426581500,5.42158154296875,0.04978665195405483,0.0035517741974443193,0.005207560314144939
1761140459436641500,5.4316416015625,0.041706805872917176,-0.012050174484215677,0.008477512762369587
1761140459446700300,5.4417001953125,0.05173194080293178,-0.012397115625208243,-0.010261975893191992
1761140459456759600,5.451759521484375,0.04484919555187225,0.005433423225581646,-0.001364429354155436
1761140459466819300,5.4618193359375,0.030035072779655454,-0.013670341298263519,0.008103400486661121
1761140459476878300,5.47187841796875,0.04425064513683319,0.00021979849683120844,-0.0030286271061748266
1761140459486937300,5.481937255859375,0.0502367338091135,0.004785234115691856,-0.0014208905154373497
1761140459496997400,5.491997314453125,0.020758125868439673,0.0045384288809262215,-0.010843712170748039
1761140459507056000,5.50205615234375,0.044400282740592954,0.000427952221641317,0.0025144031068775803
1761140459517115400,5.512115478515625,0.036167876446247096,-0.004717648772196844,-0.015266716244770212
1761140459527175400,5.522175537109375,0.021051555857062337,-0.011194206108851358,-0.011891540723247452
1761140459537234400,5.532234375,0.052775896897912025,-0.010917654189793392,0.00700290103200823
1761140459547293400,5.54229345703125,0.03601823884248733,0.0017009495658334344,-0.00612778043160215
1761140459557352200,5.552352294921875,0.02988368161022663,-0.0017090232744347302,-0.007071682818746194
1761140459567412500,5.56241259765625,0.03407119642794132,-0.0026230419799685477,0.0031543632445391267
1761140459577471200,5.57247119140625,0.05472293931245804,0.007596017220104113,0.012317629781365394
1761140459587530500,5.582530517578125,0.038860184270143504,-0.012910298444889485,0.011044714635564013
1761140459597590500,5.592590576171875,0.053225394231081004,0.007147953792195767,-0.006908400282124057
1761140459607649300,5.602649169921875,0.028835049340128895,0.0014467373427469283,-0.004187898410204798
1761140459617708500,5.61270849609375,0.034520693761110305,-0.006883000979386269,0.005585627245763316
1761140459627768300,5.622768310546875,0.04739011220633983,-0.0057485992551315574,0.0023049250746611503
1761140459637827300,5.632827392578125,0.031228081956505775,-0.019319854959938675,-0.009105554133374244
1761140459647886300,5.64288623046875,0.03691372637748718,0.0006160312728025019,-0.004215160876465961
1761140459657946400,5.6529462890625,0.0334708924472332,-0.005872444830508902,0.012243459433456881
1761140459668005400,5.66300537109375,0.04484451937675476,0.0028812362584285434,-0.0045113399446010585
1761140459678064400,5.673064453125,0.042002573949098586,-0.009604078240040689,-0.013457054740609601
1761140459688124400,5.68312451171875,0.04110474832653999,0.003832792229065671,0.01178081035776995
1761140459698183400,5.693183349609375,0.04544365431368351,-0.006913158655632287,0.0016035901385825127
1761140459708242400,5.703242431640625,0.048887072765827176,-0.002541218048566952,-0.005000045910151675
1761140459718302200,5.71330224609375,0.05113222134411335,-0.00586135718091391,-0.010527431029500439
1761140459728361500,5.723361572265625,0.044398529174923894,0.00013637626338750122,-0.0024312274686060843
1761140459738420200,5.733420166015625,0.04903787941336631,-0.003193507944839075,0.0016018091734498739
1761140459748480300,5.743480224609375,0.03781564365327358,-0.010838688935758546,-0.004787407806469127
1761140459758539500,5.75353955078125,0.04514730171561241,-0.013167561141587793,0.010478714783256873
1761140459768598300,5.763598388671875,0.0602624532610178,-0.004317388275079429,-0.004507567951781675
1761140459778658300,5.773658203125,0.03497486726939678,0.01754558442956768,-0.00550355671918951
1761140459788717300,5.78371728515625,0.049042555588483805,-0.0042018538703210645,-0.0012054485333152115
1761140459798776300,5.7937763671875,0.034977205356955525,-0.010714377569500355,0.01417558740666136
1761140459808836400,5.80383642578125,0.03273264130055904,0.0011605956114362924,-0.006557714547775685
1761140459818895400,5.813895263671875,0.047694648110866544,0.0002513078799471259,-0.008903967146668582
1761140459828954400,5.823954345703125,0.03961304846405983,0.0010756938069593162,0.0033693577020894733
1761140459839014000,5.834013916015625,0.046347325155138966,-0.010467965060379355,0.008618830062355845
1761140459849072600,5.84407275390625,0.045001171243190766,-0.001688336679432541,0.0045427579961717125
1761140459859132000,5.8541318359375,0.04425356774628162,-0.0045151667363476,0.0077503675315994764
1761140459869192000,5.86419189453125,0.047695817154645916,0.00445308868503198,-0.0032026045667473226
1761140459879250700,5.874250732421875,0.04230944794118404,0.00015617694240063429,-0.0007206515579018741
1761140459889310000,5.88431005859375,0.04365560185313225,0.0033024573451839387,0.0067528443942312145
1761140459899368700,5.89436865234375,0.052635611644387244,-0.013145650703879073,-0.0049595403698273
1761140459909428700,5.9044287109375,0.03827098620533943,-0.004325516782607883,-0.008365786883048712
1761140459919487700,5.91448779296875,0.04724865790903568,-0.0059306138916872435,0.0014812880663201211
1761140459929546800,5.924546630859375,0.04141162231862545,0.00033623708388768133,-0.00009147767573595046
1761140459939606800,5.934606689453125,0.04844458969533443,-0.002088131385669112,-0.018543993482924997
1761140459949665800,5.944665771484375,0.024201544320583343,-0.0015949684407096354,0.0029054665173869577
1761140459959724500,5.954724609375,0.031383564779162404,-0.016701589619787408,0.0006333203343208879
1761140459969784800,5.964784912109375,0.05547872611582279,-0.008237648725043982,-0.0017617489755153656
1761140459979843800,5.97484375,0.05338906036019325,0.004068811208335682,0.007191299743577837
1761140459989902800,5.98490283203125,0.039025019443035124,-0.007282329894741996,0.0030687764534726735
1761140459999963000,5.994962890625,0.042616906455159184,-0.0048420971357729286,0.01000377248157747
1761140460010021600,6.005021728515625,0.04755494737923145,-0.005026787786604836,-0.01353876907415688
1761140460020081000,6.015080810546875,0.043511809468269345,-0.007759044028399512,0.00942252026121132
1761140460030141000,6.025140869140625,0.04500643194019794,-0.007184824337018654,0.005617702884459868
1761140460040199700,6.03519970703125,0.04261106123626232,-0.01362504085181281,0.0014904486203100532
1761140460050259000,6.045259033203125,0.04260989219248294,-0.013618912505125626,-0.013714381369389593
1761140460060318700,6.055318603515625,0.029591420665383335,-0.0015349270828533916,-0.010331533998064696
1761140460070377700,6.065377685546875,0.04590191947519779,-0.012341266385279595,-0.005419166371366009
1761140460080436700,6.075436767578125,0.03288461699187755,-0.011866899472335353,-0.00442922375225462
1761140460090496800,6.085496826171875,0.044407297003269196,-0.008392948884610086,0.00745270889243111
1761140460100555800,6.0955556640625,0.04515548502206802,-0.008164839217159896,-0.005168214684445411
1761140460110614800,6.10561474609375,0.03393441830575466,-0.005143491235142573,-0.007457138472376391
1761140460120673500,6.115673583984375,0.045759296134114266,-0.020002932720119132,0.0056383712131530045
1761140460130733800,6.12573388671875,0.04636076915860176,-0.013902250357996672,0.003972127634519711
1761140460140792800,6.135792724609375,0.055037996610999104,-0.0038665757676586508,0.013898816291894763
1761140460150851800,6.145851806640625,0.037080899637937544,0.002483934903377667,0.004797901801019907
1761140460160912000,6.155911865234375,0.044563364347815514,-0.0071545022639911615,-0.009311077509680762
1761140460170970600,6.165970703125,0.04381576085090637,-0.001099604405509308,-0.008626054387586192
1761140460181030000,6.17602978515625,0.06207447111904621,-0.0009840243349783122,0.006513765808194875
1761140460191090000,6.18608984375,0.03948270008265972,0.0004762118101585656,0.0013103336798958479
1761140460201148700,6.196148681640625,0.03694061438441276,-0.0095032299477607,-0.0007683083582203835
1761140460211208000,6.2062080078125,0.04352408442795276,-0.005107552272081375,0.009875762187736108
1761140460221267700,6.216267822265625,0.04516775998175144,-0.020325113879190757,0.0021424371224828065
1761140460231326700,6.22632666015625,0.0325993703097105,-0.0036352694961242376,0.00871114798830822
1761140460241385700,6.2363857421875,0.0330482831209898,0.0030380707879550752,-0.008956884643994271
1761140460251445800,6.24644580078125,0.05534779321253299,0.0063680189282633365,-0.005223214541003108
1761140460261504800,6.2565048828125,0.0484632943958044,-0.011068543035723268,0.0036105551799759266
1761140460271563800,6.266563720703125,0.044724692389369006,0.005090902531379834,-0.008067160129500553
1761140460281623800,6.276623779296875,0.047270285218954086,0.008698571634525433,-0.019344551009777933
1761140460291682800,6.286682861328125,0.0341027606099844,-0.016163619418721645,-0.010193084508599713
1761140460301741800,6.296741943359375,0.03380173183679581,-0.009298108430253341,-0.008258298787428066
1761140460311801600,6.306801513671875,0.05565116007328033,-0.024178473972249776,-0.004286162019753828
1761140460321860900,6.31686083984375,0.048021395847201345,-0.010700157247902825,-0.006677030078507959
1761140460331919600,6.326919677734375,0.04951952545046806,-0.0006887768486049026,-0.0040131811641156674
1761140460341979000,6.336978759765625,0.034703649112582204,-0.005004621620569378,-0.00006789587074890732
1761140460352039000,6.347038818359375,0.05460077423751354,-0.016374631820898503,-0.005949245526921004
1761140460362097700,6.35709765625,0.0354489145219326,-0.008097637466154993,0.011261590522946788
1761140460372157000,6.367156982421875,0.03978548242151737,0.002684416778385639,-0.005237571859918535
1761140460382216700,6.377216796875,0.04352408442795276,-0.005909096179623157,0.003070849679550156
1761140460392275700,6.387275634765625,0.04217734599411487,-0.018523544349940493,0.003129393200064078
1761140460402334700,6.397334716796875,0.04517243615686893,-0.0016517583955544977,-0.006910071649402379
1761140460412394800,6.407394775390625,0.0495136802315712,-0.027489315553288905,0.0031689488923177123
1761140460422453800,6.417453857421875,0.03155541421473026,-0.007790188085334375,-0.012435657537309451
1761140460432512800,6.4275126953125,0.04098082968592644,-0.007400467248540371,-0.0033100652629043906
1761140460442572800,6.43757275390625,0.05100713365972042,-0.007033414901280775,0.0038048904419876635
1761140460452631800,6.4476318359375,0.04621931486129761,0.009261137420730665,-0.00666120232171379
1761140460462690800,6.45769091796875,0.0448731609493494,0.009463482459262013,0.005429057577718049
1761140460472750600,6.46775048828125,0.04517126711308956,0.0023418047526385633,0.010967457281425595
1761140460482809900,6.477809814453125,0.04472235430181026,0.007415573486126959,-0.004259958999417722
1761140460492868600,6.48786865234375,0.03679273034632206,-0.014871689045196397,-0.002695805822080001
1761140460502928600,6.4979287109375,0.048612347477674483,-0.021546618498163295,-0.002888287053722888
1761140460512988000,6.50798779296875,0.019850947895646093,-0.0064386273459065705,0.0030123518248088657
1761140460523046700,6.518046630859375,0.0843394944190979,-0.012069984296383335,0.0255153120665811
1761140460533106000,6.52810595703125,0.027317630514502523,-0.0023869682017713784,-0.007784726458927616
1761140460543165700,6.538165771484375,0.07504734993875026,-0.013428970290441065,0.015810650395741685
1761140460553224700,6.548224609375,0.038982349345088,-0.004086977052688599,0.010856361589767037
1761140460563285000,6.558284912109375,0.04690963521301746,-0.0004284545451402664,-0.006836659353319555
1761140460573343700,6.56834375,0.0566284806728363,0.00104986524595879,-0.0021691333331633356
1761140460583402800,6.57840283203125,0.03342939139306545,-0.013414320710580796,-0.012962567488243803
1761140460593461800,6.588461669921875,0.02220481754541397,0.0047212381019257005,-0.009512436167523263
1761140460603521800,6.598521728515625,0.030880291432142257,-0.0017574563928879797,-0.003083462565951049
1761140460613580800,6.608580810546875,0.0465899017393589,-0.019588652830803764,0.01313899263422936
1761140460623639800,6.618639892578125,0.04090367279648781,-0.003325326764117926,0.0029103527550585566
1761140460633699600,6.628699462890625,0.024741642546653748,-0.007986085116770118,-0.01084493601345457
1761140460643758800,6.6387587890625,0.030872108125686644,0.00888927190103568,-0.003145294022094458
1761140460653817600,6.648817626953125,0.031022330251336095,-0.005700924188503995,0.002963288518693298
1761140460663877600,6.658877685546875,0.04134557134509086,-0.01407634654957801,-0.00436869833720848
1761140460673937000,6.66893701171875,0.054962593287229536,-0.014100193216046318,-0.006327549920557066
1761140460683995600,6.67899560546875,0.03087152360379696,-0.005900328351277857,-0.005410791268665343
1761140460694055700,6.6890556640625,0.029675591817498206,-0.011572629233496263,0.0005312025335617363
1761140460704114700,6.69911474609375,0.04957797763943672,0.002446881695464253,-0.006839006574032828
1761140460714173700,6.709173583984375,0.03371756068468094,-0.0036438363950699565,-0.011202919138269499
1761140460724234000,6.71923388671875,0.03940905032455921,-0.010982152527058496,-0.008744894994283095
1761140460734292700,6.729292724609375,0.05602583860456943,-0.007335165193676948,-0.008779272187920286
1761140460744351700,6.739351806640625,0.048402504119277,-0.0020799480792134998,-0.002256099230563268
1761140460754411800,6.749411865234375,0.03224690361022949,-0.002799019601382315,0.0003126096131280064
1761140460764470800,6.759470703125,0.06547697303891181,0.00547570973103866,-0.006651137585425749
1761140460774529800,6.76952978515625,0.046477089014649385,-0.011072333294851704,0.003586808978207409
1761140460784588800,6.7795888671875,0.04288812461197376,-0.0060161002180539064,-0.0037384832754265513
1761140460794648800,6.78964892578125,0.03526303656101227,-0.012361898181354627,0.0009770100723020731
1761140460804707800,6.799707763671875,0.025388708278536794,-0.024573081046715378,-0.0036127014712896196
1761140460814766800,6.809766845703125,0.043643326893448825,-0.01723280128650367,0.004568038567900657
1761140460824826600,6.81982666015625,0.03242167565524578,-0.009756839382648468,-0.021989549093227832
1761140460834885600,6.8298857421875,0.030774492970108983,0.0007204597616568207,-0.001564673767145723
1761140460844944400,6.8399443359375,0.0424462260633707,0.005152304729260504,0.013934143333602695
1761140460855004700,6.850004638671875,0.03825695767998695,-0.009083588896738364,0.0028608601906802505
1761140460865063400,6.8600634765625,0.034812954705953594,-0.006695004126615822,0.0041909488838166
1761140460875122400,6.870122314453125,0.04348901311457157,0.000622168752644211,-0.0018736118521541355
1761140460885182700,6.8801826171875,0.052317047214508056,-0.001716521594300866,0.0032409912152215835
1761140460895241500,6.890241455078125,0.06174538529515266,-0.0023128800522536036,-0.009503449143469333
1761140460905300700,6.90030078125,0.050970308780670166,0.004412957604043186,0.011674071180820464
1761140460915360500,6.910360595703125,0.046183074504137035,-0.012953827059362082,0.0021676172295119612
1761140460925419500,6.92041943359375,0.03630640813410282,-0.012613553121173753,-0.005895058521116152
1761140460935478500,6.930478515625,0.04168985473811626,-0.003914259967440739,0.013341447270615026
1761140460945538600,6.94053857421875,0.043936172360181804,-0.00651828671968542,0.005022568269213662
1761140460955597600,6.95059765625,0.03720364923477173,-0.008780377299617975,-0.003606134733185172
1761140460965656600,6.960656494140625,0.0425900184482336,-0.021595544806960968,0.004213589973887428
1761140460975715600,6.970715576171875,0.04917231944799423,-0.00761918803313747,-0.00917480171099305
1761140460985775400,6.980775390625,0.05216740961074829,-0.006097010834002867,-0.0013602646356914191
1761140460995834600,6.990834716796875,0.04423661661148071,-0.003310750249493867,0.015180700195441021
1761140461005893400,7.000893310546875,0.047529812937974925,-0.015126586254872381,-0.007742302956152707
1761140461015953700,7.01095361328125,0.04423837017714977,-0.028443648002902045,-0.004544977352721616
1761140461026012400,7.021012451171875,0.04663023374974727,0.001429749675327912,-0.010157099879765883
1761140461036071400,7.031071533203125,0.050073067680001256,-0.0027451248565223065,-0.00961076370915398
1761140461046131700,7.041131591796875,0.04004676370620727,-0.013317765000928192,0.008070530263520777
1761140461056190500,7.0511904296875,0.04603109881281853,-0.014915537320077419,0.0020419724226929245
1761140461066249700,7.061249755859375,0.05635433990657329,-0.002255405110819265,-0.0016022201654035597
1761140461076309500,7.0713095703125,0.053658524951338764,-0.007132071236474439,-0.00635110432608053
1761140461086368500,7.081368408203125,0.0566501079827547,-0.015401886931760235,-0.013831304013635963
1761140461096427500,7.091427490234375,0.03944061450660229,-0.004566778192576021,0.00010444675516337156
1761140461106487600,7.101487548828125,0.036596915513277053,-0.01219846038110554,0.000761979082133621
1761140461116546600,7.111546630859375,0.035547698721289635,-0.01967501594000496,0.00018739406457170843
1761140461126605600,7.12160546875,0.05350538021624088,-0.008732620034599676,0.0074604994732420885
1761140461136665600,7.13166552734375,0.0422848980218172,-0.0013127813653089106,-0.019522894118214024
1761140461146724400,7.141724365234375,0.04452770851254463,-0.004064902218198403,-0.00968162785512395
1761140461156783600,7.15178369140625,0.04302840986549854,-0.006545786647964269,-0.007715917272726074
1761140461166842400,7.16184228515625,0.041380058136582375,-0.01927003360199742,-0.00892473594006151
1761140461176902700,7.171902587890625,0.03928630072772503,-0.0074777337358333165,-0.0027152503080666063
1761140461186961400,7.18196142578125,0.04676701187193393,-0.003451081168791279,0.009449590931227431
1761140461197020400,7.1920205078125,0.04601823933124542,-0.002669036546163261,-0.010740178731037303
1761140461207080700,7.202080810546875,0.04093114532530308,-0.000004082520073279738,-0.004327334280358627
1761140461217139500,7.212139404296875,0.04092880723774433,-0.006474575442122295,0.006250904487771913
1761140461227198700,7.22219873046875,0.04242284518778324,-0.013374655420472845,-0.0040621896713040765
1761140461237258500,7.232258544921875,0.041378304570913314,0.00541698354743421,-0.02291958735180087
1761140461247317500,7.2423173828125,0.040780338677763935,-0.010195559593476355,-0.02908130658562295
1761140461257376500,7.25237646484375,0.024470424389839172,-0.0033439949319697916,-0.010223781040962785
1761140461267436500,7.2624365234375,0.033599487262964245,0.00014831329635344446,-0.012922619070345535
1761140461277495600,7.27249560546875,0.03838730606138706,-0.002497031846968457,-0.011587972933100536
1761140461287554600,7.282554443359375,0.03135258511900901,-0.02071165637820959,-0.0054030098210088905
1761140461297614600,7.292614501953125,0.04481763136982918,-0.00540611509354785,-0.0016367526226677
1761140461307673300,7.30267333984375,0.041374212917685504,-0.01595027806214057,0.00416357681970112
1761140461317732600,7.312732666015625,0.030752281138300894,0.0015372925698757171,-0.023976256797881797
1761140461327791400,7.322791259765625,0.05035363818705082,-0.006596786182839423,-0.009884301687218247
1761140461337851600,7.3328515625,0.038384383451938626,-0.011478694739192724,-0.02149720813217573
1761140461347910400,7.342910400390625,0.03868482770323753,-0.0061290956058539445,0.0020197423245757818
1761140461357969400,7.352969482421875,0.03868599674701691,-0.0018392620579805224,-0.015750800834130496
1761140461368029700,7.36302978515625,0.033598318219184874,0.00502107043187134,0.009219563301326707
1761140461378088400,7.37308837890625,0.026713234880566594,-0.0015335205770563333,0.005387364727305248
1761140461388147700,7.383147705078125,0.05155073901712894,0.00017434278675355016,-0.01136894162124954
1761140461398207500,7.39320751953125,0.05394260258972645,-0.00003768339557573199,-0.0014205617218744008
1761140461408266500,7.4032666015625,0.046460722401738166,-0.007651820794260129,-0.010949391901772468
1761140461418325500,7.413325439453125,0.03628770343363285,0.003203600080590695,-0.01776655197017826
1761140461428385500,7.423385498046875,0.03778291042745113,-0.0023918818389065564,-0.013381368289049714
1761140461438444500,7.433444580078125,0.04900514618754387,0.003053588017495349,0.004433014011383057
1761140461448503600,7.443503662109375,0.02431611061096191,-0.010035217932611704,0.010419805936561896
1761140461458563600,7.4535634765625,0.03838379893004894,0.021184561986429616,-0.006467122788028791
1761140461468622300,7.463622314453125,0.04451718711853027,0.007018463927321136,0.008562496765237302
1761140461478681600,7.473681640625,0.025810148561000824,0.0055752154496032744,0.00021192571762949228
1761140461488740400,7.483740234375,0.04047463372945785,-0.002195044092554599,-0.011634360224939883
1761140461498800600,7.493800537109375,0.05289397031962871,-0.0035987551443278786,-0.02657694994872436
1761140461508859600,7.503859619140625,0.04630816218852996,0.0018566333178896455,-0.00641914632730186
1761140461518918400,7.51391845703125,0.031195348730683324,-0.011122501712664962,0.01459434254169464
1761140461528978700,7.523978759765625,0.05169686948955059,-0.0005907689673826098,-0.011923771625570952
1761140461539037400,7.534037353515625,0.04511164588034153,-0.0062852451487909996,0.005032733470201492
1761140461549096700,7.5440966796875,0.040025720918178555,0.007186039046570658,-0.007376693647308275
1761140461559156500,7.554156494140625,0.0319458748370409,-0.0051205761504359544,-0.00469797595734708
1761140461569215500,7.564215576171875,0.03882745104432106,-0.0050856783669907596,-0.00568671300006099
1761140461579274500,7.5742744140625,0.04152151243388653,-0.023976859586080534,-0.0070160984402988106
1761140461589334500,7.58433447265625,0.05379062689840793,-0.015203441750211641,-0.0008518584558274597
1761140461599393500,7.5943935546875,0.045857495811581606,0.00010479381503537297,-0.009800514127593488
1761140461609452500,7.60445263671875,0.037329321441054344,0.0005281520599499345,-0.00197321803541854
1761140461619512600,7.6145126953125,0.05842705452740192,0.006920519978180527,-0.0023624000160954893
1761140461629571300,7.6245712890625,0.05184592257142066,0.004793746215710416,0.0034638584519736467
1761140461639630600,7.634630615234375,0.03119768681824207,-0.011917506281565874,-0.003413224243279546
1761140461649689300,7.644689453125,0.04481763136982918,0.008272957500442862,0.013086002071667461
1761140461659749600,7.65474951171875,0.027158056038618088,-0.012139204474538564,-0.001768955034436658
1761140461669808600,7.66480859375,0.02356909163594246,-0.006444573029503226,-0.009090192167460917
1761140461679867400,7.674867431640625,0.03942950859069824,-0.021470173994777724,0.00842061320967041
1761140461689927700,7.684927734375,0.05065174435079097,-0.00022135113310068843,-0.003438376950845122
1761140461699986400,7.694986328125,0.03748305069804191,-0.007958402525400742,-0.0022597981581464407
1761140461710045700,7.705045654296875,0.0409258846282959,-0.001903385935910046,-0.009717228891467675
1761140461720105500,7.71510546875,0.03599076631367206,-0.007414258311875164,-0.0032173089455347506
1761140461730164500,7.72516455078125,0.03853519009947776,-0.0017442589845973998,0.0015971603977959603
1761140461740223500,7.735223388671875,0.04452127877175808,-0.0028007457675877957,-0.0006287628902122379
1761140461750283500,7.745283447265625,0.047211833029985426,-0.0013489121246151624,-0.00012498721969313918
1761140461760342500,7.755342529296875,0.03404197033345699,-0.001978496998734772,-0.009229308377206326
1761140461770401500,7.765401611328125,0.03628419630229473,-0.003966784739121794,-0.017396120355743915
1761140461780461600,7.775461669921875,0.04406242908835411,-0.011305128270573913,-0.009800230999803169
1761140461790520300,7.785520263671875,0.022961773392558095,-0.005138075274508446,-0.004058006686531007
1761140461800579600,7.79557958984375,0.03388298037946224,0.0013556341263465583,-0.002534742642007768
1761140461810638300,7.805638427734375,0.0397188469260931,-0.002025916337035596,0.0038060046868398784
1761140461820698600,7.81569873046875,0.025506781700253486,-0.009379740565409883,-0.010324044811353086
1761140461830757600,7.825757568359375,0.04376432292461395,-0.0029633798502385613,-0.011142430255841463
1761140461840817400,7.8358173828125,0.0516962849676609,-0.0009283303586766123,-0.00828323229928501
1761140461850877200,7.845877197265625,0.03613689678609371,-0.004134168062126264,-0.007709131338912993
1761140461860936400,7.8559365234375,0.045564065822958945,-0.0019067926025483756,-0.012840146684972568
1761140461870995200,7.8659951171875,0.03748012808859348,-0.013010397818498312,-0.007701459489110857
1761140461881055200,7.87605517578125,0.05154314023256302,0.0018466416468378155,0.002139249651553109
1761140461891114500,7.886114501953125,0.044510172855854034,-0.01578867602595128,-0.012797567918570712
1761140461901173200,7.89617333984375,0.0452566073089838,-0.004976802031882107,0.0005611592804081738
1761140461911233500,7.906233642578125,0.0437578931838274,-0.012051033000741153,0.01592996592647396
1761140461921292300,7.916292236328125,0.03537526476383209,-0.01022041090694256,0.010538326882850379
1761140461931351300,7.926351318359375,0.044502574071288103,-0.015789424944622443,-0.003461794359050691
1761140461941411300,7.936411376953125,0.0431564201593399,-0.0010081541292369365,-0.01141116419462487
1761140461951470300,7.94647021484375,0.04884206458032131,0.00013057671026326715,-0.016111779633630065
1761140461961529300,7.956529296875,0.047643794706463814,-0.007310478276992216,-0.010195504794549197
1761140461971588400,7.96658837890625,0.04913841717839241,-0.0005766673767939209,-0.016301959310332313
1761140461981648400,7.9766484375,0.03985913217961788,-0.014788239412289112,-0.013281816904712468
1761140461991707400,7.986707275390625,0.04255027095973491,-0.009954334716126322,-0.00741912628323771
1761140462001766400,7.996766357421875,0.044345337682962414,0.005086746946070343,-0.013949368302198126
1761140462011826200,8.006826171875,0.041352585607767105,-0.0025827465021982785,-0.009352797759557142
1761140462021885400,8.016885498046875,0.04329904350042343,-0.006474018319696188,-0.010005462115164846
1761140462031944200,8.026944091796874,0.03492342934310436,0.004251538230944424,-0.004116267079254612
1761140462042004200,8.037004150390626,0.03747019121646881,-0.02032335118036717,0.0017244035066571086
1761140462052063500,8.0470634765625,0.053332946258783334,-0.014150498631177469,0.001263361866166815
1761140462062122200,8.057122314453125,0.0344774391412735,-0.005767313088756054,-0.0018113968035206197
1761140462072182500,8.0671826171875,0.028340543821454046,0.014944589884625747,0.00752592939226888
1761140462082241300,8.0772412109375,0.04060848924219608,-0.014868108848622068,-0.010626288294093683
1761140462092300300,8.08730029296875,0.04988602067530155,-0.011473150914395228,0.0015922284943517297
1761140462102359300,8.097359375,0.052578913021087643,0.010057630693819373,0.0006163144005928189
1761140462112419300,8.10741943359375,0.035520226192474365,0.0008558861769735812,-0.009599374665459617
1761140462122478300,8.117478271484375,0.04913374100327492,-0.007243614452704787,-0.013008689918601884
1761140462132537300,8.127537353515624,0.0480845242112875,-0.006544224878540262,-0.004642966967634856
1761140462142597400,8.137597412109375,0.04284662355780601,-0.013148207987146452,-0.012281900880858301
1761140462152656400,8.147656494140625,0.04478957431912422,-0.012839763092482461,-0.01065837306594476
1761140462162715400,8.15771533203125,0.05406652123034,0.004789983356045559,-0.005161483549559489
1761140462172775200,8.167775146484376,0.04254617930650711,-0.00021440993566066027,-0.014540210334816946
1761140462182834400,8.17783447265625,0.029978374156355857,-0.01026543735875748,-0.011056459872284903
1761140462192893200,8.18789306640625,0.055118076109886165,-0.00023945304537191986,0.004280033673066646
1761140462202953200,8.197953125,0.0320721315652132,-0.010852269936539233,-0.0007718885547947138
1761140462213012500,8.208012451171875,0.03297171075344085,0.002523947253357619,0.004656374438479542
1761140462223071200,8.2180712890625,0.04224865766465664,-0.0022512677918188275,-0.020209296346642074
1761140462233130500,8.228130615234376,0.051821957173943514,-0.0023271825722418725,-0.017535629291133954
1761140462243190300,8.238190185546875,0.04014730147123337,0.0057176104618236415,-0.004897042193403468
1761140462253249300,8.248249267578124,0.03655541445910931,0.00918817264921963,0.024440211914665996
1761140462263308300,8.258308349609376,0.03880173208117485,-0.004880474651092663,-0.012397270888835191
1761140462273368300,8.268368408203125,0.038949616119265555,0.009923090194491668,-0.0008551098588388412
1761140462283427300,8.27842724609375,0.039996494823694224,-0.014684002719679847,-0.0012602565936278552
1761140462293486300,8.288486328125,0.0440367101252079,-0.013036783501924946,0.00012797376122325658
1761140462303546400,8.29854638671875,0.04553191711902618,0.0004226001930888742,-0.0168893581436947
1761140462313605400,8.30860546875,0.04208849866688251,-0.007085355151072144,-0.0095199344873894
1761140462323664400,8.318664306640626,0.05016776022613048,-0.002892424372723326,-0.008435153191676363
1761140462333724200,8.32872412109375,0.03744797938466072,-0.0014368004706222562,-0.014652648600190877
1761140462343783400,8.338783447265625,0.03146130619049072,0.0010463489814661444,-0.009093434437317773
1761140462353842200,8.34884228515625,0.03340717956125736,0.009554083352163434,-0.015821500583318993
1761140462363901400,8.3589013671875,0.045379356905817986,-0.005430601080833003,-0.008017868494521825
1761140462373961500,8.36896142578125,0.05899637884795665,-0.0048510750266723334,0.004715813008137047
1761140462384020200,8.379020263671874,0.0578004470616579,-0.001564134911028668,0.00012867701412178575
1761140462394079500,8.38907958984375,0.026226912668347358,-0.017725900299381463,-0.0010561945220455527
1761140462404139300,8.39913916015625,0.028771920976042746,-0.0024893325977027414,-0.0065441518133040515
1761140462414198300,8.4091982421875,0.03071662530303001,0.004845503802411258,-0.0142136543947272
1761140462424257300,8.41925732421875,0.03924304610788822,-0.0038323081718757744,-0.009761853484483435
1761140462434317300,8.4293173828125,0.046428573697805404,0.000635083033144474,-0.0025088501489255576
1761140462444376600,8.43937646484375,0.04463233793079853,-0.0016250987174920737,-0.01678767873435281
1761140462454435300,8.449435302734376,0.04912088152170181,0.0025343133837450295,0.0021746954242698848
1761140462464495400,8.459495361328125,0.05181260482370853,-0.0038415691905654965,-0.005838195501035079
1761140462474554400,8.469554443359375,0.04253565791249275,-0.002571183928567916,0.012811112386733292
1761140462484613400,8.47961328125,0.03984335008859634,-0.003673217753181234,-0.0024070611417293547
1761140462494672400,8.48967236328125,0.024880758756399154,0.00320829452201724,-0.0030623010469134895
1761140462504732400,8.499732421875,0.036106501647830004,0.0014160956093110144,-0.0013443364141974598
1761140462514791200,8.509791259765626,0.0660357759654522,-0.005337488570436835,-0.017967654899694024
1761140462524850400,8.519850341796875,0.04074760545194149,-0.0018230689750052987,-0.009808350374177098
1761140462534910500,8.529910400390625,0.04179097702503204,-0.01344733706419356,0.0011460282299667597
1761140462544969200,8.53996923828125,0.051368952709436415,0.00123770683510229,-0.011647977758338673
1761140462555028500,8.550028564453125,0.04403963273465633,0.003961688438896089,-0.01349714928898029
1761140462565088300,8.560088134765625,0.039702480313181875,0.004179258446022868,0.001563714785920456
1761140462575147300,8.570147216796874,0.038057051193714136,-0.0073737710378598414,-0.01772410106793977
1761140462585206300,8.580206298828125,0.04643967961370945,-0.007344398812903091,-0.0017893402353394774
1761140462595266300,8.590266357421875,0.03177753253281116,0.006216079769562929,-0.010641549795307218
1761140462605325600,8.60032568359375,0.036866380104422565,-0.013467210808442905,-0.013966840026807039
1761140462615384300,8.61038427734375,0.05033201087713241,-0.004404893028596416,0.0004305277712177485
1761140462625443600,8.620443603515625,0.030883798563480374,-0.004458111920021474,0.010441250583389773
1761140462635503400,8.63050341796875,0.045098201876878734,-0.004843832435132935,-0.009960517861740664
1761140462645562400,8.640562255859376,0.03896247560083866,-0.0238777283268515,-0.00252982900487259
1761140462655621400,8.650621337890625,0.03507072885930538,0.006764872758742421,-0.004427607183903456
1761140462665681400,8.660681396484375,0.05736673181951046,-0.017745098190195856,-0.007106964194681495
1761140462675740200,8.670740234375,0.04030862951278686,-0.009005527825001627,-0.011515784479724242
1761140462685799400,8.68079931640625,0.031032851645350454,-0.0019638565520290283,-0.0012367021881043911
1761140462695859500,8.690859375,0.027588264149427413,-0.013693886570632457,0.0002875756365712732
1761140462705918200,8.700918212890626,0.02863397381007671,-0.012905686201853677,0.0031586649603210387
1761140462715977500,8.7109775390625,0.04419570007920265,-0.006605873671593144,-0.007014372274093329
1761140462726037200,8.721037353515625,0.04689093051254749,-0.01167430864283815,-0.003612920666998252
1761140462736096300,8.73109619140625,0.04554594564437866,0.008900825341511518,-0.0008703896263614297
1761140462746155300,8.7411552734375,0.05197802451848983,-0.01314918523468077,0.0011655366480350495
1761140462756214300,8.75121435546875,0.040755204236507414,-0.0042823078285437076,-0.021102692389255388
1761140462766274600,8.761274658203124,0.04284837712347507,-0.007118910360801965,-0.008336779984273016
1761140462776333300,8.771333251953125,0.04090075018703937,-0.0036726697639096525,0.001541457288339734
1761140462786392600,8.781392578125,0.038055882149934765,-0.006847007217397913,0.0025702706131152807
1761140462796452400,8.791452392578124,0.04074994353950023,-0.002786991236871108,-0.014246643348876386
1761140462806511400,8.801511474609375,0.04030219977200031,-0.00476220943313092,-0.019164965792326256
1761140462816570400,8.8115703125,0.03761047646999359,0.0000904638955835253,-0.011325431273085995
1761140462826630400,8.82163037109375,0.039404958671331404,-0.014085534503031521,-0.001490393821382895
1761140462836689000,8.83168896484375,0.05062836347520351,-0.0010150039951317012,-0.009790495057078078
1761140462846748000,8.841747802734375,0.04808627777695656,0.013326130970474331,-0.0026576931682415306
1761140462856808000,8.851807861328124,0.04254851739406586,-0.02086873750290833,0.023098615446826443
1761140462866867000,8.861866943359376,0.03491641508042812,-0.008955441605579107,-0.010531842343136668
1761140462876926000,8.871926025390625,0.02504384036362171,-0.0033083116972353306,-0.009557234290475025
1761140462886984700,8.881984619140624,0.05362520720362663,0.003964620181499049,-0.009256579976622015
1761140462897045000,8.892044921875,0.04943710786402225,-0.00940499373767525,-0.0075513743607793
1761140462907104000,8.90210400390625,0.050935237467288966,0.0188980858839117,0.00024245785321108995
1761140462917163000,8.9121630859375,0.04943886142969131,-0.004335873779840767,0.0004721475563943386
1761140462927223000,8.92222314453125,0.055426119145751,-0.00862014523660764,-0.011924191750679164
1761140462937281800,8.93228173828125,0.04973930568099021,-0.01388910774863325,-0.01364391908221878
1761140462947341000,8.942341064453124,0.039115620335936546,-0.0022017112953588366,-0.000565771523443982
1761140462957400800,8.95240087890625,0.0454003996938467,0.001277490856219083,0.00667838178537786
1761140462967459800,8.9624599609375,0.040161329996585844,0.0022986414643470197,-0.019222586864233015
1761140462977518800,8.972518798828125,0.04330255063176155,-0.006305064094113186,-0.015756563854636623
1761140462987579000,8.982578857421874,0.04315291302800178,0.004882666608178988,-0.006260832226742058
1761140462997638000,8.992637939453125,0.050633039650321,-0.006370740608312189,-0.00939395175385289
1761140463007697000,9.00269677734375,0.039409634846448896,0.001592237627506256,-0.008344990690192207
1761140463017756000,9.012755859375,0.028638649985194206,-0.004815062998374924,-0.014409377896226941
1761140463027816000,9.02281591796875,0.03596972352564334,-0.017942712254682556,0.00803588820840232
1761140463037875000,9.032875,0.04749298805892467,-0.002116992153972387,0.0005864763847552239
1761140463047933700,9.04293359375,0.047642041140794754,-0.01063788740034215,-0.010829080857196822
1761140463057994000,9.052993896484375,0.04465045810937881,-0.010589372083498165,-0.012470189994573593
1761140463068053000,9.063052978515625,0.04450315859317779,0.005496524190204218,-0.00322925511165522
1761140463078112000,9.073112060546874,0.04974164376854896,-0.0008538038177415728,-0.007423163137538358
1761140463088172000,9.083172119140626,0.04136369152367115,-0.013883116399263963,-0.006257589956885203
1761140463098230800,9.093230712890625,0.04016717521548271,-0.010813198301475495,0.005371810965146869
1761140463108290000,9.1032900390625,0.055877370044589036,-0.010391785418475047,-0.0010506780967116354
1761140463118348800,9.113348876953125,0.05183949283063411,0.003521607388043776,-0.018094806677009908
1761140463128408800,9.123408935546875,0.0391220500767231,-0.015020614262903109,0.016464602526137604
1761140463138467800,9.1334677734375,0.05049567700624465,-0.0035223654398694633,-0.006357369670085608
1761140463148526800,9.14352685546875,0.031493454894423484,0.0026953217648901045,0.002257186075951904
1761140463158587000,9.1535869140625,0.020123335096240043,0.0017791202354244886,0.008816407594224437
1761140463168646000,9.16364599609375,0.050499184137582774,0.002051041645137593,-0.0002445219461340457
1761140463178705000,9.173704833984376,0.04556114321351051,-0.008731587988138199,0.004842188467318192
1761140463188765000,9.183764892578125,0.04541501274108886,-0.0076538848871830845,-0.004328959981864318
1761140463198824000,9.193823974609375,0.050503860312700266,-0.004890566786844283,-0.015407494688639417
1761140463208882700,9.203882568359376,0.05199965182840824,-0.0022436690072529016,-0.013706481190724297
1761140463218942000,9.21394189453125,0.05065466696023941,0.007738941955287009,-0.011802309803524985
1761140463229002000,9.224001953125,0.06950842051208019,-0.012757327239727601,0.0011520652451086789
1761140463239061000,9.23406103515625,0.05155073901712894,-0.02027850739164278,0.012710044898744673
1761140463249120000,9.2441201171875,0.03958089976012707,-0.0029803949171211567,-0.0035651177362073213
1761140463259179800,9.2541796875,0.049905309897661204,-0.007078158225305378,-0.009232961639016867
1761140463269239000,9.264239013671874,0.038085108244419096,-0.0010133234946988522,0.0063475241295062
1761140463279297800,9.2742978515625,0.03509352521300316,-0.000851739724818617,-0.0096885416531004
1761140463289357800,9.28435791015625,0.04077916963398456,-0.011121615796675905,-0.015797854846250264
1761140463299416800,9.294416748046874,0.04077916963398456,-0.005265510179614648,0.0006767850167118013
1761140463309475800,9.304475830078125,0.034493805754184724,-0.013611158456932752,-0.015521832650154829
1761140463319535900,9.314535888671875,0.041374797439575194,0.0005074654649477451,-0.000801735703786835
1761140463329595000,9.324594970703124,0.0386819050937891,-0.0009399751306977122,-0.0018797584651503712
1761140463339654000,9.33465380859375,0.039731706407666205,-0.019503988488344476,-0.010459873085469007
1761140463349713000,9.344712890625,0.05260112485289573,-0.0007368355077225715,-0.011268988378113135
1761140463359773000,9.35477294921875,0.051852352312207216,-0.009906422187481076,-0.0093786719863303
1761140463369831700,9.364831787109376,0.05365034164488315,-0.006638725628424436,-0.004445453367847949
1761140463379891000,9.374890869140625,0.052903322669863695,-0.0021438436282798646,-0.0036043355017434803
1761140463389951000,9.384950927734375,0.0434744000673294,-0.014936698839114979,-0.0009506883209571241
1761140463400010000,9.395010009765626,0.05005728558897972,0.0092948022283148,-0.00430912277023308
1761140463410069000,9.405069091796875,0.04841010290384292,-0.010414819234190508,-0.006274120966577902
1761140463420128800,9.415128662109375,0.03628887247741222,-0.003583210515324026,-0.011582191646285354
1761140463430188000,9.42518798828125,0.04048047894835472,-0.018063763084774836,-0.012414386420417577
1761140463440246800,9.435246826171875,0.04766191488504409,0.009925939738703891,-0.005618725797766819
1761140463450306000,9.44530615234375,0.04287409608662128,-0.010729547739168628,0.007169663300504907
1761140463460366000,9.455365966796874,0.04122808244526386,-0.014048344297800212,0.01146135087874718
1761140463470424800,9.4654248046875,0.03329787396788597,-0.005925188797898591,0.0031772965955547986
1761140463480484000,9.475484130859375,0.03524316281676292,-0.0031454036199487743,-0.0010225936465431003
1761140463490543900,9.4855439453125,0.03823474584817886,0.0011864881045185029,-0.00979291534302756
1761140463500603000,9.495602783203125,0.04392272835671902,-0.00838602595347911,0.001693980968929827
1761140463510662000,9.505661865234375,0.04123100505471229,-0.007525043476279824,-0.0002810088984668255
1761140463520722000,9.515721923828124,0.02821370257139206,-0.0040716516193933785,-0.007826090515777468
1761140463530780700,9.52578076171875,0.046316930016875264,-0.0015792868143878877,0.00973552259998396
1761140463540840000,9.53583984375,0.05364858807921409,-0.00019938589646480975,0.0041901177667547015
1761140463550898700,9.545898681640624,0.06292495046854019,-0.012495096106966957,-0.012085784653713925
1761140463560959000,9.555958984375,0.04766308392882347,0.0036929088343400506,-0.012265415536938235
1761140463571018000,9.56601806640625,0.043325346985459326,-0.0024312457349151373,0.009252104730904102
1761140463581076700,9.57607666015625,0.04751695345640182,-0.0016603435608092694,-0.003031156989978626
1761140463591137000,9.586136962890626,0.03988485114276409,-0.007047543891333043,-0.0012420450835023075
1761140463601195800,9.59619580078125,0.04632102167010307,-0.018055077454820274,-0.0025847923288121817
1761140463611255000,9.606255126953124,0.03435118241310119,-0.0017500220051035284,-0.01881258129123598
1761140463621315000,9.616315185546876,0.04617255311012268,-0.00037141799512319264,-0.011254841121751815
1761140463631373800,9.626373779296875,0.04392798905372619,-0.018736520380340516,-0.002862942549912259
1761140463641433000,9.63643310546875,0.0374924030482769,-0.005549423421220854,-0.009812661223113537
1761140463651492900,9.646492919921876,0.052153965607285496,-0.00016839710315689444,0.009878018076904117
1761140463661551900,9.6565517578125,0.044670331853628155,0.002765555723197758,-0.009862939238781109
1761140463671611000,9.66661083984375,0.05200082087218761,0.00119821507493034,-0.00947345586400479
1761140463681670000,9.676669921875,0.046913142344355584,-0.010153711479436606,-0.003624127047602087
1761140463691729700,9.686729736328125,0.04197743950784206,-0.007574873967375606,-0.011491755150165409
1761140463701789000,9.696788818359375,0.04152911121845245,0.0003484389783348888,0.0025956516495440154
1761140463711847700,9.70684765625,0.05664250919818878,-0.014651671352656557,-0.005368349499581381
1761140463721908000,9.716907958984375,0.05035714531838894,-0.00010819134851917624,0.0017892306374851614
1761140463731967000,9.726967041015625,0.046915480431914326,-0.0006534954726696014,-0.010294225061824544
1761140463742025700,9.737025634765626,0.05559446144998073,-0.010280278734862805,-0.009622171019157395
1761140463752086000,9.7470859375,0.047365562286972994,0.005481116558518261,-0.007090533649688586
1761140463762144800,9.757144775390625,0.02686637961566448,-0.008774395083403214,-0.019176610564347354
1761140463772204000,9.7672041015625,0.03434942884743213,-0.009251949467277153,-0.006854825197672471
1761140463782262800,9.7772626953125,0.04332826959490776,-0.003601148030813783,-0.006711726932553574
1761140463792322800,9.78732275390625,0.05275660767555237,-0.005425979704642668,-0.0008178922541439532
1761140463802382000,9.797382080078124,0.04751753797829151,-0.002637938155001029,0.0027857308615464715
1761140463812440800,9.80744091796875,0.037794600865244866,-0.0025483601754065603,-0.004668621998699381
1761140463822500900,9.8175009765625,0.04946925656795501,-0.01722744925795123,-0.00747832739087753
1761140463832559900,9.827559814453124,0.04767535888850689,-0.006890006108907982,-0.0002886624819599092
1761140463842619400,9.837619384765626,0.04528349531590938,0.003280565173784271,-0.00822741045881994
1761140463852679200,9.84767919921875,0.04917699562311172,-0.012506823077378795,-0.015709117116872222
1761140463862738400,9.857738525390625,0.061597501257061954,-0.0014051175575703382,-0.009514719456154853
1761140463872797200,9.867797119140626,0.04797814122736454,0.0023421974782831968,0.0023320140109863133
1761140463882856400,9.8778564453125,0.039297406643629074,-0.008354808831308036,0.0027291783687192943
1761140463892916500,9.88791650390625,0.053961307290196416,-0.012044164868537335,-0.0029254863921087232
1761140463902975200,9.897975341796876,0.06248772809505462,-0.009163531398307532,-0.012387662810273467
1761140463913034500,9.908034423828125,0.043781858581304546,-0.006244191619195044,-0.010275684758136049
1761140463923094300,9.91809423828125,0.05724807387590408,-0.004147840394452214,-0.01675615108492784
1761140463933153300,9.9281533203125,0.050064299851655954,-0.008739031509077176,0.002980193987721577
1761140463943212300,9.93821240234375,0.043778351449966425,-0.01130223306058906,0.010790602877177298
1761140463953272300,9.948272216796875,0.03031155163347721,-0.0007227978492155671,-0.006853619621274992
1761140463963331600,9.95833154296875,0.042733226311206816,-0.0010749814209062606,-0.0020219068821985273
1761140463973390300,9.968390380859375,0.040787937462329865,-0.0009141009039245545,0.003262563726212829
1761140463983449300,9.978449462890625,0.04662555757462978,-0.013302585698105393,-0.001843673371616751
1761140463993509400,9.98850927734375,0.03674947572648525,-0.004006185167748481,-0.0025583883790764954
1761140464003568400,9.998568359375,0.041537294524908064,-0.018306860258802772,-0.02138803953612223
1761140464013627400,10.00862744140625,0.05081248787045479,-0.010274744043219835,-0.010245572747662662
1761140464023687400,10.0186875,0.04946574943661689,-0.008078348243795335,0.006150348456436768
1761140464033746200,10.02874609375,0.03794365394711494,0.00825998842101544,-0.0026377554919105022
1761140464043805400,10.038805419921875,0.04168459404110908,-0.006441385558573529,-0.013463183087296783
1761140464053865500,10.048865478515625,0.04527589653134346,0.0013777363603003322,-0.012825707167666405
1761140464063924200,10.05892431640625,0.04512625892758369,0.0022650771214626727,-0.011806785049242898
1761140464073983500,10.0689833984375,0.04587444694638252,-0.0022233934042043984,-0.008939440318848937
1761140464084042200,10.079042236328124,0.038543373405933376,-0.006381125005008653,-0.01449665432088077
1761140464094102300,10.089102294921876,0.041088966235518457,-0.003068758187163621,0.002554159728530794
1761140464104161300,10.099161376953125,0.034656302839517594,-0.010106200809590517,-0.0010555552012287079
1761140464114220300,10.10922021484375,0.0440846409201622,0.0023313290243968366,0.004704122570343315
1761140464124280600,10.119280517578124,0.05081657952368259,0.008726199426967651,-0.013883609589608385
1761140464134339300,10.12933935546875,0.035405075380206104,0.015320291329221799,-0.02409732589428313
1761140464144398300,10.1393984375,0.04752689032852649,0.0016159107640385626,-0.010358723399089649
1761140464154458400,10.149458251953124,0.03780219964981079,-0.011093549612816422,-0.014751177071221172
1761140464164517400,10.159517333984375,0.04079612076878547,-0.00974243639796041,-0.010752015299303457
1761140464174576400,10.169576416015625,0.06114508131444454,-0.008131110477494076,-0.001161024869699031
1761140464184635400,10.179635498046874,0.04348901311457157,-0.003067360814521089,-0.012764935157448053
1761140464194695400,10.1896953125,0.04019640130996704,-0.005925261863134801,-0.002643107520462945
1761140464204754400,10.19975439453125,0.05246785386204719,-0.00435064209070988,0.001357853482896462
1761140464214813400,10.2098134765625,0.042593525579571724,-0.006257717821048572,-0.005047383050061762
1761140464224873200,10.219873291015626,0.033467385315895076,-0.002689513078611344,-0.002559593955473974
1761140464234932500,10.229932373046875,0.053819268471002574,-0.0037647045620717106,-0.006239223183132708
1761140464244991200,10.2399912109375,0.04349661189913749,-0.02027662596181035,0.0039437417902518064
1761140464255051300,10.25005126953125,0.038408348849415776,-0.014042700008302926,-0.002874852183414623
1761140464265110300,10.2601103515625,0.04214636633396148,-0.012653885131562128,0.003542394447745755
1761140464275169300,10.270169189453124,0.044243046352267265,-0.012584180896217002,-0.0016759795213583857
1761140464285228300,10.280228271484376,0.038407179805636404,-0.018403333770064634,0.008498948276042938
1761140464295288300,10.290288330078125,0.03481938444674015,-0.000013206541445106268,-0.0023637608561199158
1761140464305347300,10.300347412109375,0.03347381505668163,-0.01311552956025116,-0.01090338820242323
1761140464315406300,10.31040625,0.04544774596691131,-0.009201963712554424,0.008926288576330989
1761140464325466400,10.32046630859375,0.043349896904826164,-0.0015408088343683629,-0.0156053462151438
1761140464335525400,10.330525390625,0.03377309026420116,-0.009639606211148202,-0.006655110507644712
1761140464345584400,10.34058447265625,0.03886076879203319,-0.01923183874976821,0.01454859457067214
1761140464355643400,10.350643310546875,0.052477790734171866,-0.004640090023959056,0.00492298035225831
1761140464365703400,10.360703369140625,0.04814005379080772,0.014879991082660853,0.0014023410785943269
1761140464375762400,10.370762451171874,0.04350362616181373,0.008797264502337202,-0.011679496274609118
1761140464385821400,10.380821533203125,0.034224925684928895,-0.008153550638165325,0.003691940719960257
1761140464395881500,10.390881591796875,0.03707037824392319,-0.010210154374409466,-0.004144214532105252
1761140464405940200,10.400940185546874,0.03153495594859123,-0.01244971346212551,-0.002775812255730852
1761140464415999500,10.41099951171875,0.03647358139455318,-0.012751007096795365,0.0033778972015716135
1761140464426059300,10.421059326171875,0.05203530766367912,-0.008610738087445497,-0.0026694658044259995
1761140464436118300,10.4311181640625,0.044704818645119666,0.002131276407651603,0.009835804636683314
1761140464446177300,10.44117724609375,0.036626141607761384,-0.00500534313977696,-0.008072859217924997
1761140464456236300,10.451236328125,0.05174012410938739,0.002220616925228387,0.018481321776565165
1761140464466296300,10.46129638671875,0.03318272315561771,-0.017039735532971098,0.025556146400468424
1761140464476355300,10.471355224609376,0.04859539634287357,-0.02409717976381071,0.0009778959882911294
1761140464486414300,10.481414306640625,0.051287704166769976,-0.020583746549068017,-0.004287267131451517
1761140464496474400,10.491474365234374,0.0488946715503931,0.0021765585877932606,-0.00569758145394735
1761140464506533400,10.501533447265626,0.054582069537043566,-0.00702173359664157,-0.005405494039040059
1761140464516592400,10.51159228515625,0.040814825469255446,-0.00942883127098903,-0.010073905975185335
1761140464526652400,10.52165234375,0.027495909690856933,-0.012513627277500926,0.005724597325036302
1761140464536711400,10.53171142578125,0.05293547137379646,-0.01232658027280122,-0.006249059590557589
1761140464546770400,10.5417705078125,0.0381242712110281,0.001961828991724178,-0.013175123393535612
1761140464556829400,10.551829345703124,0.04201601795256137,-0.009834982652775943,0.0016400953572243452
1761140464566889200,10.56188916015625,0.05338555322885513,-0.006757063911622389,-0.002503470720909536
1761140464576948500,10.571948486328125,0.04814706805348396,-0.006866689165402204,-0.0026987923636101183
1761140464587007200,10.58200732421875,0.04994213477671146,-0.001890937446290627,-0.002242025039438158
1761140464597067300,10.5920673828125,0.028095629149675366,-0.0076025291592814025,-0.010438994694221763
1761140464607126300,10.602126220703125,0.047996261405944825,-0.008483568043820559,-0.009334312254795803
1761140464617185300,10.612185302734375,0.04470540316700935,-0.003999618429644033,0.00181430114666
1761140464627245300,10.622245361328124,0.046802667707204815,-0.0029662750602234152,-0.004494635404972359
1761140464637304300,10.63230419921875,0.059821139234304425,-0.003670970997167751,-0.013841944138659164
1761140464647363300,10.64236328125,0.06101707102060318,-0.018119164800131694,-0.0003893737769220024
1761140464657422300,10.65242236328125,0.036624972563982006,-0.0011472429395187646,-0.006993621747009455
1761140464667482400,10.662482421875,0.029292729979753494,-0.008049250013474375,-0.00029261713786982
1761140464677541400,10.672541259765625,0.06071838033497333,-0.003660340005299076,-0.003576369782583788
1761140464687600400,10.682600341796874,0.03917173443734646,-0.013273734062956646,-0.0029104532197583464
1761140464697660400,10.692660400390626,0.0530862780213356,0.011133726359577848,0.01762294224840589
1761140464707719400,10.702719482421875,0.05173953958749771,-0.003623085867986083,0.009897078970400616
1761140464717778400,10.7127783203125,0.03752455175220966,-0.0029146270713768896,-0.01005460761967115
1761140464727837400,10.72283740234375,0.03228723562061787,-0.0119031672289595,-0.016280615128204227
1761140464737897500,10.7328974609375,0.04530687619149685,-0.017032100215787067,-0.009193506411463022
1761140464747956200,10.742956298828124,0.0376753583997488,-0.006043682344723493,-0.01959915595850907
1761140464758015500,10.753015380859376,0.05054360780119896,-0.003360105816554278,0.003094997740117833
1761140464768075500,10.763075439453125,0.05084171396493911,-0.010782821429520844,0.0009635660688392817
1761140464778134300,10.77313427734375,0.04620294824838638,-0.011015515940543263,-0.002575713973212987
1761140464788193500,10.783193603515626,0.030938743621110914,-0.007218708340311422,0.013227008844399825
1761140464798253300,10.79325341796875,0.04006605292856693,-0.024262334597110746,-0.006080909082572907
1761140464808312300,10.803312255859375,0.04036766622364521,0.003241420473484322,-0.015553816957306116
1761140464818371300,10.813371337890626,0.042910920965671534,-0.010286133086914196,-0.0019142178571783005
1761140464828430300,10.823430419921875,0.04096797020435333,0.000824897383665666,-0.007971472069527953
1761140464838490400,10.833490478515625,0.0631160891264677,-0.021307046721782533,-0.009818004118511452
1761140464848548900,10.843548828125,0.04785188449919223,-0.0024371092201210557,-0.014050298792868851
1761140464858607900,10.85360791015625,0.04335866473317146,-0.021359297498827798,-0.010695508472248911
1761140464868668000,10.86366796875,0.031986206847429276,-0.008980758709926158,-0.014749021646752953
1761140464878727000,10.873726806640626,0.03946808703541756,-0.014855422896984964,-0.007166914220992475
1761140464888786000,10.883785888671875,0.030189386558532712,-0.010584796373080461,0.004661954795895144
1761140464898846000,10.893845947265625,0.0378191507846117,0.0032137835478875786,-0.00812293630419299
1761140464908904700,10.90390478515625,0.04021335244476795,-0.010302435767743735,-0.0017842713345773518
1761140464918964000,10.9139638671875,0.04918985510468483,-0.007754924975708127,-0.011759712770814076
1761140464929022700,10.924022705078125,0.03212941471040249,-0.004392179677495733,-0.012237897342350333
1761140464939082800,10.934082763671874,0.046046296381950375,-0.01869932104195468,-0.010500643487274646
1761140464949141800,10.944141845703125,0.04514788623750209,-0.0030802111629396676,0.004326484896987676
1761140464959200800,10.95420068359375,0.0476876338481903,-0.006336701341392472,0.0035052681745961307
1761140464969261000,10.964260986328124,0.03272270442843437,-0.004508609131397679,0.001921168187772855
1761140464979319800,10.97431982421875,0.05875730939507484,-0.0072663286080118265,-0.0014313662436790764
1761140464989378800,10.98437890625,0.039002807611227035,-0.020145017205085606,-0.007731032643467187
1761140464999437800,10.994437744140624,0.05232113886773586,-0.0020184636829420925,-0.003338880365435034
1761140465009497900,11.004497802734376,0.05366846182346344,0.0009585976327769458,-0.009146671595051885
1761140465019556900,11.014556884765625,0.03810264390110969,-0.01207342749563977,-0.00235315726371482
1761140465029615900,11.024615966796874,0.04663257183730602,-0.0009040635671000927,-0.00042534927260130643
1761140465039676000,11.034676025390626,0.046782793962955475,0.0026248686108738184,-0.004385156281664968
1761140465049735000,11.04473486328125,0.0382505279392004,-0.00444707906935364,-0.015678018725709987
1761140465059794000,11.0547939453125,0.04288812461197376,-0.0049408904682844874,-0.014737066347477956
1761140465069853700,11.064853759765626,0.0473784217685461,0.007008271326869726,-0.000455854008719325
1761140465079913000,11.074912841796875,0.05516133072972297,-0.010620242145797237,-0.0021386377301998434
1761140465089971700,11.0849716796875,0.0406295320302248,0.0017187866166234016,-0.019965039261989295
1761140465100031000,11.095031005859376,0.03687456341087818,-0.00076511175413616,-0.012133578451350331
1761140465110091000,11.105091064453125,0.04914250883162021,0.003673044223245233,-0.009684714861353859
1761140465120149800,11.115149658203125,0.06635258682966232,-0.003481110980873927,-0.008944838013174012
1761140465130209000,11.125208984375,0.05932429562807083,0.00580333425020799,-0.0016975702986586837
1761140465140268800,11.135268798828125,0.04107318414449691,0.0038385643827263264,-0.0028657555615063755
1761140465150327800,11.145327880859375,0.05065758956968784,-0.013983243172336369,-0.004991415079124271
1761140465160386800,11.15538671875,0.042433951103687285,-0.004406966254673898,0.007601451447047293
1761140465170446800,11.16544677734375,0.043487844070792196,-0.005045611218083649,-0.01364527078908868
1761140465180505900,11.175505859375,0.04079670529067516,0.0010878957014065235,-0.009412071932433173
1761140465190564900,11.18556494140625,0.037356209447979925,-0.004206319982884452,-0.017752057653944938
