time,seconds_elapsed,z,y,x
1761140454075014100,0.07001416015625,-0.000272683915682137,0.0013282443396747112,-0.0029059769585728645
1761140454085073000,0.080072998046875,-0.0008801509393379092,-0.0014720694161951542,-0.0006851671496406198
1761140454095132200,0.090132080078125,0.0016567956190556288,0.0005282359197735786,0.0015059902798384428
1761140454105192200,0.100192138671875,0.0010277570690959692,-0.001918942667543888,-0.0036909019108861685
1761140454115251000,0.1102509765625,0.00017916684737429023,-0.0008423756808042526,0.0007819746970199049
1761140454125310200,0.120310302734375,-0.00008501874981448054,-0.0017332031857222319,0.0021670847199857235
1761140454135370000,0.130369873046875,0.0009748575976118445,-0.0012422287836670876,-0.0004515808541327715
1761140454145429200,0.14042919921875,0.0012600821210071445,0.00026458781212568283,-0.00046329875476658344
1761140454155488000,0.150488037109375,-0.002573271282017231,-0.0011966153979301453,-0.0014520478434860706
1761140454165548000,0.160548095703125,0.0014619503635913134,-0.00010205619037151337,0.0029189984779804945
1761140454175607300,0.170607177734375,0.002351531060412526,0.002634757664054632,0.0028831735253334045
1761140454185666000,0.180666015625,-0.00041975441854447126,-0.0012406744062900543,0.0012581127230077982
1761140454195726000,0.19072607421875,-0.0010066860122606158,0.0008092820644378662,0.00035675993422046304
1761140454205785000,0.20078515625,-0.0020237471908330917,0.0007834490388631821,-0.0006856012623757124
1761140454215844000,0.210843994140625,-0.0003802189603447914,0.0001383582130074501,-0.001605340512469411
1761140454225903900,0.22090380859375,-0.0008641153108328581,0.000050473958253860474,0.0009648762061260641
1761140454235963100,0.230963134765625,0.00118652218952775,-0.0022827310021966696,0.0008837589411996305
1761140454246023200,0.241023193359375,-0.0006089811213314533,-0.00122359162196517,-0.0019261423731222749
1761140454256082200,0.251082275390625,0.001449709408916533,0.0005616066046059132,-0.0015985872596502304
1761140454266141200,0.26114111328125,0.0005703336209990084,0.0008417712524533272,-0.0004489006823860109
1761140454276201000,0.271200927734375,0.0005291501292958856,0.0002010776661336422,-0.0038750215899199247
1761140454286260200,0.28126025390625,0.002046885434538126,-0.0009430162608623505,-0.0011852288153022528
1761140454296319000,0.291319091796875,-0.0015726047568023205,0.0030975546687841415,-0.002127175685018301
1761140454306379000,0.30137890625,-0.0012226654216647148,0.0004887217655777931,0.0020206975750625134
1761140454316438300,0.311438232421875,-0.00044802267802879214,0.000023640692234039307,0.0012238549534231424
1761140454326497000,0.3214970703125,-0.0004554795450530946,0.0004902263171970844,-0.0018009634222835302
1761140454336557000,0.33155712890625,0.0011972710490226746,0.0003034723922610283,-0.0005396787310019135
1761140454346616000,0.341615966796875,-0.0002778538619168103,-0.0007231761701405048,0.0006052142707630992
1761140454356675000,0.351675048828125,-0.0026481030508875847,0.002175317145884037,-0.0020149867050349712
1761140454366735000,0.361735107421875,-0.0009186463430523872,0.0014669164083898067,-0.0006301428657025099
1761140454376794000,0.371794189453125,-0.002653914038091898,-0.00032263947650790215,0.0010749341454356909
1761140454386853000,0.38185302734375,-0.00018702796660363674,0.0009855055250227451,-0.0006995301228016615
1761140454396913200,0.3919130859375,0.001195793622173369,-0.0003112033009529114,-0.0005731123965233564
1761140454406972200,0.40197216796875,0.00011854496551677585,0.0005138441920280457,0.0001280978904105723
1761140454417032000,0.412031982421875,0.0005229654489085078,-0.0016579653602093458,0.00007283629383891821
1761140454427091200,0.42209130859375,-0.0008389751892536879,-0.0002614036202430725,-0.00038309686351567507
1761140454437150000,0.43214990234375,-0.000562117260415107,-0.0009343442507088184,0.0012346638832241297
1761140454447210000,0.4422099609375,-0.0019466946832835674,0.0013652956113219261,-0.0020932224579155445
1761140454457269200,0.452269287109375,0.0009208039846271276,0.0009501297026872635,0.0010084882378578186
1761140454467328000,0.462327880859375,-0.00041823339415714145,0.0015048664063215256,-0.00020111951744183898
1761140454477388000,0.472387939453125,-0.00013775762636214495,0.00022495537996292114,-0.001255698618479073
1761140454487447000,0.482447021484375,0.0014369694981724024,0.0011919490061700344,0.000839410291519016
1761140454497506000,0.492506103515625,0.0009505850030109286,-0.00032100360840559006,0.0006531294784508646
1761140454507566300,0.50256640625,0.0014110454358160496,0.0005807429552078247,0.0001386067597195506
1761140454517625000,0.512625,-0.0022100331261754036,0.00026744138449430466,-0.0003099029418081045
1761140454527684000,0.52268408203125,-0.0005253174458630383,-0.0012564193457365036,0.0006344539579004049
1761140454537744100,0.532744140625,-0.0007163011468946934,0.00041999947279691696,0.0020094166975468397
1761140454547803100,0.54280322265625,0.0008155491086654365,0.000023188535124063492,-0.001768277259543538
1761140454557862100,0.552862060546875,0.0005888643208891153,-0.0003725755959749222,-0.0030412841588258743
1761140454567922200,0.562922119140625,0.00011828378774225712,0.00039228424429893494,0.0028616124764084816
1761140454577981000,0.57298095703125,0.0011387474369257689,-0.0009181331843137741,0.001226876862347126
1761140454588040200,0.583040283203125,-0.00034383434103801847,-0.00007231347262859344,0.00038798118475824594
1761140454598100200,0.593100341796875,0.0007693844381719828,-0.0003630886785686016,-0.0012768006417900324
1761140454608159000,0.603158935546875,-0.0024394583888351917,0.0006387927569448948,-0.0010485678212717175
1761140454618219300,0.61321923828125,0.001076109241694212,-0.003257105592638254,0.000660451187286526
1761140454628278000,0.623278076171875,0.0009195153834298253,0.0045576742850244045,-0.0006916356505826116
1761140454638337000,0.6333369140625,-0.0016969980206340551,-0.0023461165837943554,-0.0020854363683611155
1761140454648397300,0.643397216796875,0.00011927774176001549,-0.003105649957433343,-0.001655868487432599
1761140454658456000,0.6534560546875,0.0012217930052429438,-0.004509884398430586,0.0022162445820868015
1761140454668515300,0.663515380859375,0.0018827896565198898,-0.007219650782644749,-0.0006517135770991445
1761140454678575000,0.6735751953125,-0.000013673095963895321,-0.0051828124560415745,-0.00014811247820034623
1761140454688634000,0.683634033203125,-0.0005343211232684553,-0.0011012516915798187,-0.002206469653174281
1761140454698693000,0.693693115234375,0.0034709488973021507,0.002673726063221693,0.0030700622592121363
1761140454708753200,0.703753173828125,-0.00035255157854408026,0.0026239254511892796,0.002709470223635435
1761140454718812000,0.71381201171875,-0.00010913558071479201,0.005918681621551514,-0.0008906543953344226
1761140454728871200,0.72387109375,0.000827764451969415,0.0018240711651742458,-0.0016190288588404655
1761140454738931200,0.73393115234375,-0.0013887231471017003,0.0034415689297020435,0.0010454086586833
1761140454748990000,0.743989990234375,0.001072836690582335,0.005771302152425051,0.00020624656463041902
1761140454759049200,0.75404931640625,-0.0005484588327817619,0.0013701091520488262,-0.00022663729032501578
1761140454769109000,0.76410888671875,-0.00026749534299597144,-0.00010102102532982826,0.0002215726999565959
1761140454779168300,0.774168212890625,-0.002158219227567315,0.004863004665821791,0.003171939868479967
1761140454789227000,0.78422705078125,-0.00029853382147848606,0.003180952277034521,0.0006762916455045342
1761140454799287000,0.794287109375,0.0005716884625144303,0.042126912623643875,0.020408565178513527
1761140454809346300,0.80434619140625,-0.00010635238140821457,0.010130364447832108,0.002830103738233447
1761140454819406000,0.814406005859375,-0.001684840302914381,0.00210396945476532,0.0011475026840344071
1761140454829464600,0.824464599609375,0.0007415657746605575,0.00039555132389068604,-0.0003667706623673439
1761140454839523800,0.83452392578125,-0.0009638194460421801,0.0016930438578128815,0.0024675275199115276
1761140454849583600,0.84458349609375,-0.00019389961380511522,0.0025364672765135765,-0.0007106889970600605
1761140454859642600,0.854642578125,0.00115683872718364,0.0021260734647512436,0.0026190513744950294
1761140454869701600,0.86470166015625,-0.0016133813187479973,0.0026326067745685577,-0.00037540687480941415
1761140454879761700,0.87476171875,-0.0008765069069340825,0.00015325751155614853,0.001348531455732882
1761140454889821000,0.884821044921875,-0.0002911441260948777,0.005868667270988226,-0.000787590048275888
1761140454899879700,0.894879638671875,0.0009283261024393141,0.0017614332027733326,0.001004679943434894
1761140454909939700,0.904939697265625,0.00039622653275728226,0.0014703497290611267,0.00020653061801567674
1761140454919998700,0.914998779296875,0.00032727315556257963,0.0031518172472715378,-0.0005979487905278802
1761140454930057700,0.9250576171875,-0.00010841997573152184,0.0014782864600419998,0.0016825159545987844
1761140454940117800,0.93511767578125,-0.0005179232684895396,0.0011841128580272198,-0.0003198697231709957
1761140454950176800,0.9451767578125,0.0011071376502513885,-0.0018074160907417536,-0.001909244223497808
1761140454960235800,0.95523583984375,-0.0011339167831465602,0.0015149852260947227,0.0014481277903541923
1761140454970295600,0.965295654296875,-0.0010548208374530077,-0.001016882248222828,-0.0007151579484343529
1761140454980354800,0.975354736328125,-0.0024495578836649656,-0.0005735722370445728,-0.0017751413397490978
1761140454990413600,0.98541357421875,0.0021814131177961826,-0.00044547440484166145,0.00007602199912071228
1761140455000473900,0.995473876953125,0.0018516841810196638,-0.0016703156288713217,0.0012081663589924574
1761140455010532600,1.00553271484375,-0.00017018785001710057,-0.004195524845272303,0.0011431851889938116
1761140455020592600,1.015592529296875,0.0010720975697040558,-0.005545055028051138,0.00009325076825916767
1761140455030652000,1.02565185546875,0.00027101876912638545,-0.0016400620806962252,-0.0006431132787838578
1761140455040710700,1.035710693359375,0.0015863343141973019,-0.002423191675916314,-0.0007950934814289212
1761140455050770700,1.045770751953125,-0.0025913664139807224,0.0010658157989382744,-0.0005479521350935102
1761140455060829700,1.05582958984375,-0.00034059619065374136,-0.0005126930773258209,-0.0017935000360012054
1761140455070888700,1.065888671875,0.0007185428985394537,-0.0011268178932368755,-0.003026810009032488
1761140455080948700,1.07594873046875,-0.0022416943684220314,-0.0013333207461982965,-0.0003886689664795995
1761140455091007700,1.0860078125,-0.001411054516211152,-0.0019431847613304853,-0.0007950672879815102
1761140455101066800,1.096066650390625,0.0003729639865923673,0.00032119639217853546,0.0015516446437686682
1761140455111126800,1.106126708984375,-0.0008771237917244434,0.0017393296584486961,-0.0015469432109966874
1761140455121185800,1.116185791015625,-0.000002819171641021967,-0.000922713428735733,-0.0029753949493169785
1761140455131244500,1.12624462890625,-0.0007863211212679744,0.0003718491643667221,0.00010854564607143402
1761140455141304800,1.136304931640625,-0.0015968004008755088,-0.0033705311361700296,-0.00011545623419806361
1761140455151363600,1.146363525390625,0.0021228366531431675,0.00167482765391469,-0.0020723468624055386
1761140455161422800,1.1564228515625,-0.00016591447638347745,0.000025212299078702927,-0.002937271725386381
1761140455171483000,1.16648291015625,-0.002880740910768509,0.0011045914143323898,-0.0013745289761573076
1761140455181541600,1.176541748046875,-0.0022612889297306538,0.001623534131795168,-0.001797978999093175
1761140455191601000,1.186600830078125,0.00023862032685428858,-0.0002614511176943779,-0.0002594707766547799
1761140455201660700,1.19666064453125,-0.0008114965166896582,-0.0004208669997751713,0.0007598797092214227
1761140455211719700,1.2067197265625,-0.0009875315008684993,0.0009128442034125328,-0.0007690410129725933
1761140455221778700,1.21677880859375,0.002089905319735408,0.00036876043304800987,-0.001121866051107645
1761140455231838700,1.226838623046875,-0.0012313227634876966,-0.00018730759620666504,0.002168735722079873
1761140455241897700,1.236897705078125,0.0004885356174781919,-0.0026256449054926634,0.0008830290753394365
1761140455251957800,1.246957763671875,-0.0012230779975652695,-0.001051450613886118,0.0010105944238603115
1761140455262016800,1.257016845703125,-0.00002633925760164857,-0.0013756633270531893,-0.0007381175528280437
1761140455272075800,1.26707568359375,-0.00045244506327435374,-0.00030081160366535187,-0.00031893589766696095
1761140455282135800,1.2771357421875,0.0013446561060845852,-0.001467276131734252,-0.0018377366941422224
1761140455292194800,1.28719482421875,0.000522804562933743,0.0015341062098741531,-0.0006734027410857379
1761140455302253800,1.29725390625,-0.0007214464130811393,-0.00032745394855737686,0.0021561540197581053
1761140455312313900,1.30731396484375,0.0019339914433658123,0.0008928067982196808,-0.0012574857100844383
1761140455322372600,1.31737255859375,0.00009966990910470486,-0.0011226288042962551,0.0005229192320257425
1761140455332432000,1.327431884765625,-0.00044361496111378074,-0.0006736195646226406,0.0010206641163676977
1761140455342491600,1.33749169921875,-0.0006099835736677051,-0.00046368595212697983,0.0012782427947968245
1761140455352550700,1.347550537109375,-0.0013199822278693318,0.0015485985204577446,-0.0024501828011125326
1761140455362609700,1.357609619140625,0.000058332865592092276,-0.00031505897641181946,0.0010657040402293205
1761140455372669700,1.367669677734375,0.0005105375894345343,0.001410402823239565,-0.0010520417708903551
1761140455382728700,1.377728759765625,-0.0021233437582850456,-0.0028476067818701267,0.0005950869526714087
1761140455392787700,1.38778759765625,0.0011523442808538675,-0.0012108278460800648,-0.0004813627456314862
1761140455402847700,1.39784765625,-0.000998107367195189,0.0015835249796509743,-0.0010185360442847013
1761140455412906800,1.40790673828125,0.0004687617183662951,0.00028017396107316017,-0.0025549137499183416
1761140455422965800,1.4179658203125,-0.00014580105198547244,-0.0018859838601201773,-0.001524857827462256
1761140455433025800,1.42802587890625,0.0005021460237912834,0.0011873040348291397,0.0008349691051989794
1761140455443084800,1.438084716796875,-0.00015595974400639534,-0.004032909404486418,0.0010212352499365807
1761140455453143800,1.448143798828125,-0.00284708384424448,-0.0057192230597138405,0.0033850567415356636
1761140455463203600,1.45820361328125,0.0010820206953212619,-0.0017299544997513294,0.000026131223421543837
1761140455473262800,1.468262939453125,-0.0004157410585321486,0.0008383980020880699,0.0016961995279416442
1761140455483321600,1.478321533203125,-0.0013530318392440677,-0.002246179850772023,0.0005503842839971185
1761140455493381600,1.488381591796875,-0.0013341234298422933,0.0013642674311995506,0.0013530610594898462
1761140455503440600,1.498440673828125,-0.0002718177274800837,0.0020600631833076477,-0.0007835360011085868
1761140455513500700,1.508500732421875,0.0032217169646173716,0.00392267806455493,0.00472814217209816
1761140455523560000,1.518559814453125,0.004247997421771288,0.00556718185544014,0.002873186254873872
1761140455533618700,1.52861865234375,0.0015954889822751284,0.006027641706168652,0.002076368313282728
1761140455543677700,1.538677734375,0.002797699300572276,0.007396453991532326,0.0031204537954181433
1761140455553737700,1.54873779296875,0.23851728439331055,-0.0008172676898539066,-0.00019731232896447182
1761140455563796700,1.558796630859375,0.7919332385063171,-0.0018241561483591795,-0.001569606945849955
1761140455573856800,1.568856689453125,0.8701052665710449,-0.00007259519770741463,-0.0013674729270860553
1761140455583915800,1.578915771484375,0.7386587858200073,-0.01024634949862957,-0.005203955806791782
1761140455593974800,1.588974853515625,0.5982891917228699,-0.0073474980890750885,-0.004218586254864931
1761140455604034600,1.59903466796875,0.6140362024307251,-0.0054335384629666805,-0.0044628651812672615
1761140455614093800,1.60909375,0.5434526205062866,-0.004795445129275322,-0.0036295619793236256
1761140455624152600,1.619152587890625,0.5196223258972168,-0.00979680847376585,-0.005131002515554428
1761140455634212600,1.629212646484375,0.47426837682724,-0.011838920414447784,-0.00556589663028717
1761140455644271600,1.639271728515625,0.37648239731788635,0.003209165297448635,-0.0008042286499403417
1761140455654330600,1.64933056640625,0.24582505226135254,0.0029385881498456,0.0024280499201267958
1761140455664391000,1.659390869140625,0.13309353590011597,0.0025402861647307873,0.0014571427600458264
1761140455674449700,1.66944970703125,0.0399894155561924,0.0049307397566735744,-0.0011136066168546677
1761140455684509000,1.679509033203125,0.00772129837423563,-0.0010452349670231342,0.004200348164886236
1761140455694568700,1.689568603515625,0.00191400945186615,-0.009230727329850197,-0.0018687297124415636
1761140455704627700,1.699627685546875,-0.02959940955042839,-0.006689167581498623,-0.004983229096978903
1761140455714686700,1.709686767578125,-0.08784939348697662,-0.00938322115689516,-0.0018470906652510166
1761140455724746800,1.719746826171875,-0.1721762865781784,-0.013284058310091496,0.0010492957662791014
1761140455734805800,1.7298056640625,-0.2725425958633423,-0.008849628269672394,-0.0016154632903635502
1761140455744864800,1.73986474609375,-0.3774440884590149,-0.01634104736149311,-0.003930516075342894
1761140455754924800,1.7499248046875,-0.5713666677474976,0.03247682377696037,0.007616683840751648
1761140455764983600,1.759983642578125,-0.7424843907356262,-0.007132740691304207,0.0035702118184417486
1761140455775042800,1.770042724609375,-0.9249628782272339,-0.006086651235818863,-0.0023771594278514385
1761140455785102800,1.780102783203125,-1.1711479425430298,-0.0040547652170062065,-0.00013112998567521572
1761140455795161600,1.79016162109375,-1.3543180227279663,-0.00005363207310438156,0.001155975740402937
1761140455805220900,1.800220947265625,-1.4347560405731201,-0.003747545648366213,0.0012466192711144686
1761140455815280600,1.81028076171875,-1.4129263162612915,0.0012597297318279743,0.001575253438204527
1761140455825340000,1.82033984375,-1.2927428483963013,-0.0002223709598183632,0.0019075828604400158
1761140455835400200,1.830400146484375,-1.2369054555892944,-0.0044304318726062775,0.0014782812213525176
1761140455845459200,1.840459228515625,-1.175823450088501,-0.007392292842268944,-0.0019144690595567226
1761140455855518200,1.850518310546875,-1.0879253149032593,-0.0010619591921567917,0.0016770700458437204
1761140455865578200,1.860578125,-0.9860244393348694,-0.00530160591006279,-0.001927702222019434
1761140455875637000,1.870636962890625,-0.851412296295166,-0.004709585104137659,-0.0006616355385631323
1761140455885696300,1.8806962890625,-0.6926808953285217,0.05032282695174217,0.013736296445131302
1761140455895756000,1.890756103515625,-0.4791361391544342,0.0036818236112594604,0.0004481881333049387
1761140455905815000,1.90081494140625,-0.2719217836856842,-0.0001878049224615097,-0.0005117158289067447
1761140455915874000,1.9108740234375,-0.11525653302669525,0.0043238564394414425,-0.0017511509358882904
1761140455925934000,1.92093408203125,-0.016349459066987038,0.0012958953157067299,-0.0012562854681164026
1761140455935993000,1.9309931640625,0.0008215392008423805,0.0005558030679821968,-0.0003492129035294056
1761140455946052000,1.941052001953125,0.00034515245351940393,-0.00035819318145513535,0.0021938555873930454
1761140455956112100,1.951112060546875,-0.000612520263530314,0.0008085379377007484,-0.001002203905954957
1761140455966171100,1.961171142578125,-0.0005466346628963947,-0.0002133157104253769,0.002256474457681179
1761140455976230100,1.971230224609375,-0.001023340504616499,-0.0003784317523241043,0.0005009187152609229
1761140455986290200,1.981290283203125,-0.002734868321567774,0.0005990541540086269,0.0007007379317656159
1761140455996349200,1.99134912109375,-0.0004490771098062396,-0.0009322636760771275,-0.0019509716657921672
1761140456006408200,2.001408203125,-0.0005156671395525336,0.00008218875154852867,-0.0014699376188218594
1761140456016468000,2.011468017578125,0.0013765087351202965,0.0005615577101707458,0.0026707451324909925
1761140456026527200,2.02152734375,-0.0008025951683521271,0.0003730040043592453,-0.000883010623510927
1761140456036586000,2.0315859375,0.0009010289795696735,0.0001500975340604782,0.0004682773433160037
1761140456046646000,2.04164599609375,-0.00034219841472804546,0.0008628121577203274,-0.00034420302836224437
1761140456056705000,2.051705078125,-0.0005794860189780593,-0.0003372081555426121,0.001846513245254755
1761140456066764000,2.061763916015625,-0.00011885614367201924,0.0030822395347058773,0.0005388847785070539
1761140456076824000,2.071823974609375,0.0008691765833646059,-0.0011825468391180038,-0.0002328992704860866
1761140456086883000,2.081883056640625,-0.000695430557243526,-0.0005716173909604549,-0.00040600477950647473
1761140456096942000,2.091942138671875,0.00020311999833211303,0.0011328053660690784,-0.0014251964166760445
1761140456107002000,2.102002197265625,-0.000611710362136364,0.0025453977286815643,0.0012773957569152117
1761140456117061000,2.11206103515625,-0.00005777279147878289,0.0009211357682943344,0.0014411801239475608
1761140456127120100,2.1221201171875,0.0016497601754963398,-0.00046807434409856796,-0.0028828117065131664
1761140456137180200,2.13218017578125,-0.001315669622272253,0.0006840089336037636,-0.00025959801860153675
1761140456147239200,2.1422392578125,0.0021389301400631666,0.000188393983989954,-0.0027656492311507463
1761140456157298200,2.152298095703125,-0.0007790954550728202,-0.0010292036458849907,-0.0025494005531072617
1761140456167358200,2.162358154296875,0.0021125758066773415,-0.00018370384350419044,0.0008817502530291677
1761140456177417000,2.1724169921875,0.0012228137347847223,-0.0023882684763520956,0.0014862878015264869
1761140456187476200,2.182476318359375,-0.0008051637560129166,-0.00040831277146935463,-0.0006682585226371884
1761140456197536000,2.192535888671875,-0.001243786420673132,0.0008018277585506439,-0.0001350937527604401
1761140456207595000,2.202594970703125,-0.0006703219842165709,0.00008074939250946045,-0.0004458027542568743
1761140456217655300,2.2126552734375,-0.0036860855761915445,0.001278372947126627,-0.004100192338228226
1761140456227714000,2.222714111328125,-0.0004488524282351136,0.002107413485646248,-0.0000548834796063602
1761140456237773000,2.23277294921875,0.0013857991434633732,-0.0006574802100658417,0.0018282376695424318
1761140456247832000,2.24283203125,0.0010836053406819701,0.0006404374726116657,0.0006217098562046885
1761140456257892000,2.25289208984375,-0.0011260194005444646,0.0015922514721751213,-0.0007338391151279211
1761140456267951000,2.262951171875,0.0005055273650214076,0.0008375672623515129,0.0007126224227249622
1761140456278011100,2.27301123046875,0.00002509314799681306,-0.0010375645942986012,-0.00044851581333205104
1761140456288070100,2.283070068359375,0.0008931560441851616,-0.0009088278748095036,-0.00004574615741148591
1761140456298129200,2.293129150390625,-0.0003055327106267214,-0.0000763237476348877,-0.001559753087349236
1761140456308189200,2.303189208984375,0.0010348473442718387,-0.002607446163892746,0.00022263388382270932
1761140456318248000,2.313248046875,-0.0036536476109176874,0.0025987671688199043,-0.0003241131198592484
1761140456328307200,2.32330712890625,0.0006307930452749133,-0.0011339196935296059,0.0005192940006963909
1761140456338367200,2.3333671875,0.0009596934542059898,-0.00109770055860281,0.0012031937949359417
1761140456348426000,2.343426025390625,0.0003427887859288603,0.002530109602957964,-0.00011050852481275797
1761140456358485200,2.3534853515625,-0.002411452354863286,0.0000238087959587574,-0.001304137404076755
1761140456368545000,2.363544921875,0.001587261795066297,-0.00137743866071105,0.0014313263818621635
1761140456378604300,2.373604248046875,-0.0008037241641432047,0.000986649189144373,-0.0005681749316863716
1761140456388663000,2.3836630859375,-0.0004072875017300248,0.002092928159981966,0.0019988971762359142
1761140456398723000,2.39372314453125,-0.00043125601951032877,-0.00015930691733956337,-0.00036918558180332184
1761140456408782000,2.403781982421875,-0.00013893540017306805,0.0011599678546190262,0.0008051672484725714
1761140456418841000,2.413841064453125,0.000286637747194618,0.0020691710524260998,-0.0007053777226246893
1761140456428901000,2.423901123046875,-0.00010818138252943754,-0.0011224676854908466,-0.0001374254934489727
1761140456438960000,2.433960205078125,-0.0008541328134015203,-0.0003576078452169895,0.0004463394288904965
1761140456449019100,2.44401904296875,-0.0026065565180033445,0.0011231633834540844,0.0009175025625154376
1761140456459079000,2.454078857421875,0.0022696913219988346,-0.0002749962732195854,-0.0006612192955799401
1761140456469138200,2.46413818359375,-0.0001537631032988429,0.0017313212156295776,0.0010531921871006489
1761140456479197000,2.474197021484375,0.0001919152564369142,-0.001024784054607153,-0.0007785299094393849
1761140456489257200,2.48425732421875,0.0010131481103599072,-0.0014592509251087904,-0.00042388163274154067
1761140456499316200,2.494316162109375,-0.001570384600199759,-0.001674700528383255,-0.0009421327267773449
1761140456509375000,2.504375,-0.000738934613764286,-0.0004992354661226273,-0.001474564429372549
1761140456519435300,2.514435302734375,0.00020941707771271467,-0.0008086943998932838,0.0000993636786006391
1761140456529494000,2.524493896484375,0.0010200305841863155,0.001718111801892519,-0.001116384519264102
1761140456539553300,2.53455322265625,0.0015140470350161195,0.0007585748098790646,0.00009828328620642424
1761140456549613000,2.544613037109375,0.0002965553430840373,-0.001162361353635788,-0.00034590106224641204
1761140456559672000,2.554672119140625,-0.0036944577004760504,0.0013186391443014145,-0.0005746665992774069
1761140456569731000,2.56473095703125,-0.0006170476553961635,-0.0012511508539319038,0.00031286501325666904
1761140456579791000,2.574791015625,0.0010306501062586904,0.00020506558939814568,-0.0008802312077023089
1761140456589850000,2.58485009765625,-0.0010511429281905293,-0.0010953559540212154,0.002320888452231884
1761140456599909000,2.5949091796875,0.0001872269785962999,0.0007653944194316864,-0.0003606484388001263
1761140456609969200,2.60496923828125,-0.0014058491215109825,-0.00003685988485813141,-0.00028180761728435755
1761140456620028000,2.61502783203125,0.000011485069990158081,-0.00033779721707105637,-0.0025255209766328335
1761140456630087200,2.625087158203125,-0.00013020826736465096,0.000008935574442148209,-0.000052794639486819506
1761140456640147200,2.635147216796875,-0.0011081210104748607,-0.0013617933727800846,-0.0006054004770703614
1761140456650206200,2.645206298828125,0.0022745789028704166,0.0005519078113138676,0.0006363247521221638
1761140456660265200,2.65526513671875,-0.0022237664088606834,0.0008286102674901485,-0.0006470525404438376
1761140456670325000,2.665324951171875,0.0009221562650054693,-0.000022769439965486526,0.00021963566541671753
1761140456680384300,2.67538427734375,-0.00010049762204289436,0.0004520718939602375,-0.00017264799680560827
1761140456690443000,2.685443115234375,0.0003199264465365559,-0.0010911840945482254,-0.0016841222532093525
1761140456700503000,2.6955029296875,-0.000014566583558917046,0.0016928846016526222,-0.0014747977256774902
1761140456710562000,2.70556201171875,-0.00019442831398919225,0.0000501386821269989,0.0005733897560276091
1761140456720621000,2.71562109375,0.00006230041617527604,0.0017052935436367989,-0.0018322437535971403
1761140456730681000,2.72568115234375,-0.0001915214816108346,-0.0015053728129714727,-0.0023826556280255318
1761140456740740000,2.735739990234375,-0.0015380156692117453,0.0016613919287919998,0.002331938361749053
1761140456750799000,2.745799072265625,0.0007364625344052911,0.0006079515442252159,-0.002123430138453841
1761140456760859100,2.755859130859375,-0.0006726159481331706,0.0015594991855323315,-0.0026691118255257607
1761140456770918100,2.765918212890625,-0.0013438381720334291,0.0010574916377663612,-0.00031703896820545197
1761140456780977000,2.775976806640625,0.000023961416445672512,0.00012698303908109665,-0.00008321338100358844
1761140456791037200,2.786037109375,-0.0004493570886552334,-0.000004470348358154297,-0.0000093284179456532
1761140456801096200,2.79609619140625,-0.0013865235960111022,0.001559604424983263,0.0010082654189318419
1761140456811155200,2.8061552734375,-0.0008193451212719083,0.0022369534708559513,-0.002669976558536291
1761140456821215200,2.81621533203125,-0.0035573411732912064,-0.0014459320809692144,-0.0015485194744542241
1761140456831273500,2.8262734375,-0.00037344603333622217,0.0002623242326080799,-0.001649900688789785
1761140456841332700,2.836332763671875,0.0023248689249157906,0.001584317535161972,-0.002894928678870201
1761140456851392800,2.846392822265625,0.001323700649663806,0.0026587978936731815,-0.0007748713251203299
1761140456861451500,2.856451416015625,0.002225446980446577,-0.0011220918968319893,-0.00016154529293999076
1761140456871511800,2.86651171875,-0.00034432311076670885,0.00038248905912041664,0.0008711445843800902
1761140456881570600,2.876570556640625,0.00012119743041694164,0.0012605329975485802,-0.001229823101311922
1761140456891629600,2.886629638671875,0.0012235657777637243,-0.0002882559783756733,-0.0005018973024562001
1761140456901689600,2.896689697265625,0.00018386763986200094,0.0010779458098113537,0.0022392943501472473
1761140456911748600,2.90674853515625,-0.00021498790010809898,0.0015030908398330212,0.001089693047106266
1761140456921807600,2.9168076171875,0.0012809096369892359,-0.0000615161843597889,-0.0008432292379438877
1761140456931867600,2.92686767578125,0.0009521368192508817,-0.00008026417344808578,-0.0005836716154590249
1761140456941926700,2.9369267578125,-0.00029715197160840034,0.0006907209753990173,-0.002139756456017494
1761140456951985700,2.946985595703125,-0.0007208720780909061,0.0004926356486976147,0.0003274612536188215
1761140456962045700,2.957045654296875,-0.0007847879314795136,-0.0006538550369441509,-0.00043100700713694096
1761140456972104400,2.9671044921875,0.00011177087435498834,-0.00188839016482234,0.0001432707067579031
1761140456982163700,2.977163818359375,0.00018687202828004956,0.0005401461385190487,-0.00011505588190630078
1761140456992223700,2.9872236328125,-0.0005675266729667783,0.0005767908878624439,-0.00014206924242898822
1761140457002282500,2.997282470703125,0.00021970371017232537,-0.0008333530277013779,-0.00021530617959797382
1761140457012341800,3.007341796875,-0.0004204564029350877,-0.0017958723474293947,-0.004297716077417135
1761140457022401500,3.017401611328125,0.0005265636718831956,0.0005738083273172379,0.0009993112180382013
1761140457032460800,3.027460693359375,-0.0010093450546264648,0.000272924080491066,0.0006054800469428301
1761140457042519600,3.03751953125,-0.0012165389489382505,0.000802626833319664,0.0008614098187536001
1761140457052579600,3.04757958984375,-0.0018163355998694897,-0.00047063175588846207,-0.000698950607329607
1761140457062638800,3.057638916015625,-0.002531128004193306,0.0004859757609665394,-0.00029441644437611103
1761140457072697600,3.067697509765625,-0.002157156355679035,0.0022814259864389896,-0.0005184387555345893
1761140457082757600,3.077757568359375,-0.0014173303497955203,0.0027440167032182217,-0.0017360360361635685
1761140457092816600,3.087816650390625,0.0006149917608126998,0.0006480561569333076,-0.0004180880496278405
1761140457102875600,3.097875732421875,0.0022704126313328743,-0.0001671374775469303,-0.0012428690679371357
1761140457112935400,3.107935302734375,-0.0003936222055926919,0.001360293012112379,0.00015780265675857663
1761140457122994700,3.11799462890625,-0.002327343448996544,0.0005829161964356899,-0.0010504735400900245
1761140457133053400,3.128053466796875,0.0022016698494553566,-0.00035259732976555824,-0.001461051870137453
1761140457143113700,3.13811376953125,0.001203517080284655,-0.00021437928080558777,0.0011656238930299878
1761140457153172700,3.1481728515625,0.0008293013088405132,0.0000633331947028637,-0.0025924439541995525
1761140457163231500,3.1582314453125,-0.000035160803236067295,0.0006593489088118076,0.00023556698579341173
1761140457173291800,3.168291748046875,-0.0007541616214439273,0.0015259422361850739,-0.0014091860502958298
1761140457183350500,3.1783505859375,-0.0018162301275879145,-0.0024336455389857292,0.00006647146074101329
1761140457193409800,3.188409912109375,0.00002023298293352127,0.0010199407115578651,-0.0016004162607714534
1761140457203469800,3.1984697265625,-0.00008735875599086285,0.0017057047225534916,-0.0008672480471432209
1761140457213528600,3.208528564453125,-0.0001700553111732006,-0.00203454471193254,-0.003028237260878086
1761140457223587800,3.218587890625,0.001113854581490159,-0.001080600544810295,0.0012245643883943558
1761140457233647600,3.228647705078125,-0.00006852508522570133,0.00014786282554268837,0.0002133118687197566
1761140457243706600,3.23870654296875,-0.0006544205825775862,0.003456840291619301,0.0007408841047435999
1761140457253765600,3.248765625,-0.0009727737633511424,-0.0004161978140473366,-0.002412327565252781
1761140457263825700,3.25882568359375,-0.0011898213997483253,0.0001987260766327381,0.001524090999737382
1761140457273884400,3.268884521484375,-0.0004953023744747043,0.00226976303383708,-0.0016755021642893553
1761140457283943700,3.278943603515625,-0.0022860118187963963,-0.00006742682307958603,-0.0012379449326545
1761140457294003700,3.289003662109375,0.0019594719633460045,0.0001289541833102703,0.0005158470012247562
1761140457304062700,3.299062744140625,0.001708069583401084,-0.002174680121243,0.0007755051483400166
1761140457314121700,3.309121826171875,0.00005132815567776561,0.00036858441308140755,-0.000018714636098593473
1761140457324181500,3.319181396484375,-0.00015693105524405837,-0.0004812302067875862,0.0012018121778964996
1761140457334240800,3.32924072265625,0.0024994113482534885,0.0006287773139774799,0.0003024933685082942
1761140457344299500,3.339299560546875,0.000045042019337415695,0.0003747120499610901,-0.0015633173752576113
1761140457354359600,3.349359619140625,0.0013166931457817554,-0.002376551739871502,-0.001801145263016224
1761140457364418800,3.359418701171875,0.00027672864962369204,0.0010804976336658,-0.0000913958647288382
1761140457374477600,3.3694775390625,0.00003285537241026759,-0.00007514934986829758,-0.002607326488941908
1761140457384537600,3.37953759765625,-0.0001261353027075529,0.0010692109353840351,-0.0021220985800027847
1761140457394596600,3.3895966796875,-0.0018028921913355589,0.00130825350061059,0.0003800613048952073
1761140457404655600,3.399655517578125,0.00024987239157781005,0.0006549800746142864,0.0007901880890130997
1761140457414715600,3.409715576171875,-0.0017932937480509281,0.00015957746654748917,-0.0016096505569294095
1761140457424774700,3.419774658203125,-0.002066267654299736,0.001542823389172554,-0.0005196188576519489
1761140457434833700,3.429833740234375,-0.0009718582732602954,0.0011076116934418678,-0.0012088812654837966
1761140457444893700,3.439893798828125,0.0014510855544358492,-0.001141960732638836,0.0001879467163234949
1761140457454952700,3.44995263671875,0.0003731240867637098,0.0005545774474740028,0.0015664856182411313
1761140457465011700,3.46001171875,-0.0002995904069393873,0.0005726870149374008,0.0006620761123485863
1761140457475071700,3.47007177734375,-0.0026173393707722425,-0.0003461036831140518,-0.0006324864225462079
1761140457485130500,3.480130615234375,-0.0007531266892328858,0.0005236845463514328,-0.00010411528637632728
1761140457495189800,3.490189697265625,-0.0025586443953216076,0.0016555311158299446,-0.00208867434412241
1761140457505249800,3.500249755859375,0.0009964092168956995,-0.0022318849805742502,-0.00014643091708421707
1761140457515308500,3.51030859375,0.0004922838415950537,0.000530024990439415,-0.001969163306057453
1761140457525367800,3.520367919921875,-0.00040333718061447144,0.001069581601768732,-0.0009981748880818486
1761140457535427600,3.530427490234375,0.000778839981649071,-0.0018007736653089523,0.0010649759788066149
1761140457545486600,3.540486572265625,-0.0023306668736040592,0.0003481311723589897,0.00005910010077059269
1761140457555545600,3.550545654296875,-0.00036596704740077257,0.0007461118511855602,-0.0011799817439168692
1761140457565605600,3.560605712890625,0.000024984998162835836,0.00011467607691884041,-0.00037490809336304665
1761140457575664600,3.57066455078125,-0.00046245940029621124,-0.0007586786523461342,0.001696411520242691
1761140457585723600,3.5807236328125,0.00027736672200262547,0.0020512226037681103,-0.0008303957292810082
1761140457595783700,3.59078369140625,-0.0011484037386253476,0.000205223448574543,-0.0027600349858403206
1761140457605842700,3.6008427734375,0.0015049036592245102,-0.00031888624653220177,-0.000087553053162992
1761140457615901700,3.610901611328125,-0.0005864878185093403,-0.0011907503940165043,0.00006218079943209887
1761140457625961500,3.62096142578125,0.0007395001011900604,-0.0022333781234920025,0.000785495329182595
1761140457636020700,3.631020751953125,-0.00005599722499027848,-0.0006841630674898624,-0.0011763906804844737
1761140457646079500,3.64107958984375,-0.0006421590223908424,-0.0007811021059751511,0.0010761108715087175
1761140457656139500,3.651139404296875,-0.0007210939656943083,-0.0002522016875445843,-0.0028068055398762226
1761140457666198800,3.66119873046875,0.0005295264418236911,0.0024756742641329765,0.0022516027092933655
1761140457676257500,3.671257568359375,0.0001721718581393361,0.0011670528911054134,-0.00030921504367142916
1761140457686317600,3.681317626953125,-0.0020331917330622673,-0.0001967516727745533,-0.0009622221114113927
1761140457696376600,3.69137646484375,-0.00019486440578475595,-0.0012740022502839565,0.001610643696039915
1761140457706435600,3.701435546875,0.00012072018580511212,0.0014237798750400543,0.00016481353668496013
1761140457716496000,3.711495849609375,0.0012717910576611757,0.0010674507357180119,-0.002117501338943839
1761140457726554600,3.7215546875,-0.0019144148100167513,0.00010738149285316467,0.0009059853036887944
1761140457736613600,3.731613525390625,0.0008311988203786314,0.0011508050374686718,0.0011941120028495789
1761140457746673700,3.741673583984375,-0.0003499131416901946,0.0005196360871195793,-0.003909303806722164
1761140457756732700,3.751732666015625,-0.00038199860136955976,0.0017003207467496395,0.00030604912899434566
1761140457766791700,3.761791748046875,-0.0011391353327780962,0.0023075216449797153,0.00007808255031704903
1761140457776851700,3.771851806640625,0.0017169661587104201,-0.0011411113664507866,0.0011927804443985224
1761140457786910500,3.781910400390625,-0.0009408685145899653,0.0015625297091901302,0.002054312964901328
1761140457796969700,3.7919697265625,-0.0009222790831699967,0.0019428273662924767,-0.0001779612503014505
1761140457807029800,3.80202978515625,0.002703348407521844,0.0012080613523721695,0.0026103684213012457
1761140457817088500,3.812088623046875,-0.0015084741171449423,-0.00008527236059308052,-0.0016949729761108756
1761140457827147800,3.822147705078125,0.0005040767136961222,0.00019036466255784035,0.00020306202350184321
1761140457837208300,3.832208251953125,-0.0006213306332938373,0.0006295414641499519,-0.0005063973949290812
1761140457847267300,3.842267333984375,0.0010319597786292434,-0.0015936654526740313,0.0016488988185301423
1761140457857326300,3.852326416015625,-0.002126190811395645,-0.0004205843433737755,-0.0026919031515717506
1761140457867386400,3.862386474609375,0.0014315260341390967,-0.0012706653214991093,-0.001592816668562591
1761140457877445400,3.8724453125,-0.0013697671238332987,-0.0008106734603643417,-0.00241491268388927
1761140457887504400,3.88250439453125,-0.00003978458698838949,-0.0018913843668997288,0.0018823640421032906
1761140457897564400,3.892564453125,-0.0005444161943159997,0.00028100190684199333,0.00006148504326120019
1761140457907623200,3.902623046875,0.00127292494289577,-0.00008092168718576431,-0.0007457191240973771
1761140457917682400,3.912682373046875,-0.00005714036524295807,0.0016661137342453003,-0.0004071135772392154
1761140457927742200,3.9227421875,-0.00042119447607547045,-0.0012361989356577396,-0.0007224318105727434
1761140457937801500,3.932801513671875,0.000155096931848675,-0.00042613642290234566,0.00030386692378669977
1761140457947860200,3.942860107421875,-0.0028513455763459206,-0.00026421621441841125,-0.0006396910757757723
1761140457957920300,3.952920166015625,0.0005506542511284351,-0.0010449825786054134,-0.00037506537046283484
1761140457967979500,3.9629794921875,-0.00005441595567390323,-0.0009501739405095577,-0.002258985536172986
1761140457978038300,3.973038330078125,0.00002765789395198226,0.0023447596468031406,-0.00007419759640470147
1761140457988098300,3.983098388671875,-0.0016903472132980824,-0.00032372772693634033,-0.0013575749471783638
1761140457998157300,3.9931572265625,-0.0026327576488256454,-0.0004096031188964844,-0.00038512301398441195
1761140458008216300,4.00321630859375,-0.0012620283523574471,0.0017315787263214588,-0.001668234122917056
1761140458018276400,4.0132763671875,-0.00017544243019074202,-0.0005025309510529041,0.0019692834466695786
1761140458028335400,4.02333544921875,0.00011644000187516212,0.0016985717229545116,-0.0012574023567140102
1761140458038394400,4.033394287109375,-0.0014265782665461302,-0.0007947720587253571,-0.00008214742410928011
1761140458048454400,4.043454345703125,-0.00033068767515942454,-0.0005590822547674179,-0.0006973376730456948
1761140458058513400,4.053513427734375,0.001903060358017683,0.0006460947915911674,0.00040538431494496763
1761140458068572200,4.063572265625,-0.00009510928066447377,-0.0008418136276304722,0.0011974084191024303
1761140458078632400,4.073632568359375,0.00016229198081418872,0.0006827674806118011,0.000010423886124044657
1761140458088691500,4.08369140625,-0.001743466011248529,-0.0025825342163443565,-0.00004283932503312826
1761140458098750500,4.09375048828125,-0.0012806429294869304,-0.0011202143505215645,0.0025521491188555956
1761140458108810500,4.103810546875,-0.002609560266137123,0.00022548111155629158,0.0006940616294741631
1761140458118869200,4.113869140625,0.0016167567810043693,0.0008653602562844753,-0.003680685069411993
1761140458128928500,4.123928466796875,-0.0008080514380708337,-0.00040203845128417015,0.0010096743935719132
1761140458138988300,4.13398828125,-0.000817169900983572,0.0006422395817935467,-0.0018025729805231094
1761140458149047300,4.14404736328125,-0.0007721624569967389,-0.0010648462921380997,-0.0006262548267841339
1761140458159106300,4.154106201171875,0.000901668390724808,0.00004130881279706955,0.002118945587426424
1761140458169166300,4.164166259765625,0.0023975661024451256,-0.00032221293076872826,-0.0027527748607099056
1761140458179225300,4.174225341796875,0.001176650868728757,0.000017248094081878662,-0.0005693791317753494
1761140458189284400,4.184284423828125,-0.001266000559553504,0.00006491830572485924,0.0010839112801477313
1761140458199344400,4.194344482421875,0.0015189163386821747,-0.0029945967253297567,-0.000294684199616313
1761140458209403400,4.2044033203125,-0.002365570515394211,-0.0015287930145859718,-0.0018310619052499533
1761140458219462400,4.21446240234375,0.0002058717655017972,-0.0006843488663434982,0.0013200739631429315
1761140458229522400,4.2245224609375,0.0012873815139755607,-0.0015536046121269464,-0.0005241649923846126
1761140458239581400,4.23458154296875,0.000488811987452209,0.0002509518526494503,0.002509297803044319
1761140458249640400,4.244640380859375,-0.002932284725829959,-0.0012412173673510551,0.0014080808032304049
1761140458259700200,4.2547001953125,0.001306562451645732,0.0001225643791258335,-0.0015327357687056065
1761140458269759500,4.264759521484375,0.00041866456740535796,-0.0034876165445894003,-0.0008903812849894166
1761140458279818200,4.274818359375,0.001428357558324933,0.00041404133662581444,0.00030048779444769025
1761140458289878300,4.284878173828125,0.00014178449055179954,0.0008638491854071617,-0.00047342677135020494
1761140458299937300,4.294937255859375,0.0011262380285188556,-0.00040931813418865204,0.00033592182444408536
1761140458309996300,4.304996337890625,-0.0012522311881184578,0.0021254783496260643,-0.00013652292545884848
1761140458320056300,4.315056396484375,-0.001727807568386197,0.00042969780042767525,0.00046284281415864825
1761140458330115300,4.325115234375,-0.0023142355494201183,0.0012094713747501373,0.0002718941541388631
1761140458340174300,4.33517431640625,0.0014737832825630903,0.001532568596303463,0.0016175764612853527
1761140458350234400,4.345234375,-0.00034648727159947157,-0.0010134135372936726,0.0009744231356307864
1761140458360293400,4.35529345703125,0.0015515126287937164,0.00041096704080700874,0.0022546318359673023
1761140458370352400,4.365352294921875,0.001002635108307004,0.0004767468199133873,0.0043012709356844425
1761140458380411400,4.375411376953125,-0.0010759016731753945,-0.00046621495857834816,-0.0009681443916633725
1761140458390471400,4.385471435546875,0.00006206706166267395,-0.00009656837210059166,0.001229496207088232
1761140458400530400,4.395530517578125,0.0003920516464859247,-0.00009946897625923157,-0.0006382182473316789
1761140458410590500,4.405590576171875,0.00042081373976543546,-0.00016365107148885727,-0.0016062773065641522
1761140458420649200,4.415649169921875,-0.0003720925305970013,0.003703724592924118,0.003116946667432785
1761140458430708500,4.42570849609375,0.0003379062400199473,-0.0027288745623081923,0.0012793656205758452
1761140458440767200,4.435767333984375,-0.0014715446159243584,0.00008199550211429596,-0.00028812617529183626
1761140458450827300,4.4458271484375,-0.001563423778861761,0.0032868431881070137,-0.0014125127345323563
1761140458460886300,4.45588623046875,0.00157531863078475,-0.003937193192541599,-0.0006781852571293712
1761140458470945300,4.4659453125,0.000047463225200772285,0.0020381412468850613,-0.00010320876026526093
1761140458481005300,4.47600537109375,-0.0006393223302438855,-0.003304706886410713,0.00025316665414720774
1761140458491064300,4.486064208984375,-0.00002306693932041526,0.0010418384335935116,-0.00015136750880628824
1761140458501123300,4.496123291015625,-0.0021592765115201473,-0.00020493660122156143,-0.00006392371142283082
1761140458511183400,4.506183349609375,0.0012788645690307021,-0.001519206678494811,-0.0005118674598634243
1761140458521242400,4.516242431640625,-0.0010000111069530249,0.0023070801980793476,0.000043860869482159615
1761140458531301400,4.52630126953125,-0.002523871837183833,-0.0014362591318786144,-0.00013377191498875618
1761140458541361400,4.536361328125,0.0008002931135706604,0.0000539231114089489,0.0005898319068364799
1761140458551420400,4.54642041015625,0.00006632594158872962,0.0009069335646927357,-0.002780398353934288
1761140458561479400,4.5564794921875,-0.00017884094268083572,-0.0013923596125096083,0.0003478085855022073
1761140458571539500,4.56653955078125,-0.00011226185597479343,7.399357855319977e-7,0.0018221345962956548
1761140458581598200,4.57659814453125,-0.001825517974793911,0.0019401372410356998,-0.0005348300328478217
1761140458591657500,4.586657470703125,0.0004943617386743426,-0.0012143771164119244,-0.0005350963911041617
1761140458601717500,4.596717529296875,-0.0002838681102730334,0.0008267117664217949,-0.0029019988141953945
1761140458611776300,4.6067763671875,0.0009792691562324762,-0.002201302442699671,-0.0015810709446668625
1761140458621835500,4.61683544921875,-0.002735172165557742,0.0016304966993629932,-0.000659267941955477
1761140458631895300,4.626895263671875,0.0010342660825699568,-0.003635904286056757,0.0011780469212681055
1761140458641954300,4.636954345703125,0.0018395211081951857,0.00040735863149166107,0.002686953404918313
1761140458652013300,4.647013427734375,0.0002509454498067498,0.00042120693251490593,0.00011220929445698857
1761140458662073300,4.6570732421875,-0.0015609650872647762,0.00019771279767155647,0.0008852035389281809
1761140458672132400,4.66713232421875,-0.0011740077752619982,0.000629145186394453,0.0013238261453807354
1761140458682191400,4.67719140625,0.0023363756481558084,0.0014255717396736145,0.002522671828046441
1761140458692251400,4.68725146484375,0.0014511409681290388,-0.00007032603025436401,-0.0015913794049993157
1761140458702310400,4.697310302734375,0.0012073765974491835,-0.0012401784770190716,-0.0006603458314202726
1761140458712369400,4.707369384765625,-0.0006094318232499063,-0.0015182122588157654,0.00016443512868136168
1761140458722429200,4.71742919921875,-0.0006114874850027263,-0.0006612008437514305,0.0002478006645105779
1761140458732488400,4.727488525390625,-0.0003156102611683309,-0.0012609446421265602,-0.0016486363019794226
1761140458742547200,4.737547119140625,0.0009730901219882071,-0.00042188307270407677,0.0008277502493001521
1761140458752607200,4.747607177734375,-0.0006096264696680009,-0.002368121175095439,0.00036515918327495456
1761140458762666500,4.75766650390625,-0.00240176054649055,-0.0004491549916565418,0.0031334490049630404
1761140458772725200,4.767725341796875,-0.0006981363985687494,-0.000055007170885801315,0.0003986489900853485
1761140458782785500,4.77778564453125,-0.0005756617756560445,-0.00136907072737813,-0.0012383325956761837
1761140458792844300,4.78784423828125,0.0019769780337810516,-0.00037837494164705276,-0.0006151529378257692
1761140458802903300,4.7979033203125,0.0011178874410688877,0.0007254891097545624,-0.0005783290835097432
1761140458812963300,4.80796337890625,0.0014997848775237799,0.0012940741144120693,0.001279225805774331
1761140458823022300,4.818022216796875,0.00012462923768907785,0.0018542413599789143,0.003121014451608062
1761140458833081300,4.828081298828125,0.0004069243441335857,-0.0006073182448744774,-0.0011967686004936695
1761140458843141400,4.838141357421875,-0.0016972358571365476,-0.00008173380047082901,-0.0015691076405346394
1761140458853200400,4.848200439453125,0.0007589975721202791,0.003377712331712246,0.00017899135127663612
1761140458863259400,4.85825927734375,0.000050034315790981054,-0.0014059408567845821,-0.0017411666922271252
1761140458873319400,4.8683193359375,0.0013698969269171357,0.00011712079867720604,-0.0004881494678556919
1761140458883378200,4.878378173828125,0.0006179807242006063,-0.00041127996519207954,-0.0016972287558019161
1761140458893437400,4.8884375,0.0010613970225676894,-0.0011596279218792915,0.0014311864506453276
1761140458903496200,4.89849609375,-0.0012863774318248034,0.0016602249816060066,-0.000026582216378301382
1761140458913556200,4.90855615234375,-0.000994761474430561,0.0030775596387684345,0.0011974065564572811
1761140458923615500,4.918615478515625,-0.00039679219480603933,0.0012342487461864948,-0.00044305581832304597
1761140458933674200,4.92867431640625,-0.0024136039428412914,0.00047178566455841064,-0.0036010320764034986
1761140458943734500,4.938734619140625,0.00011922477278858423,-0.0002205423079431057,-0.00012111873365938663
1761140458953793300,4.948793212890625,-0.0008413774194195867,0.00018532341346144676,-0.001741119660437107
1761140458963852300,4.958852294921875,-0.0010199460666626692,-0.0021123162005096674,-0.0006701594102196395
1761140458973912300,4.968912353515625,0.0013494682498276234,0.0004182192496955395,-0.00018759461818262935
1761140458983971300,4.978971435546875,0.0008877319633029401,0.0006148195825517178,-0.0007017914904281497
1761140458994030300,4.9890302734375,0.0019266309682279825,-0.0009391345083713531,-0.005053130444139242
1761140459004090400,4.99909033203125,0.0024666606914252043,0.0008324016816914082,-0.00005701679037883878
1761140459014149400,5.0091494140625,0.0008216260466724634,0.0004244050942361355,0.000751518935430795
1761140459024208400,5.01920849609375,-0.0011763058137148619,-0.00033832062035799026,-0.003193129086866975
1761140459034268400,5.029268310546875,-0.0010665834415704012,0.0006180205382406712,0.00031691708136349916
1761140459044327200,5.0393271484375,0.0016156821511685848,-0.00047247298061847687,-0.0014089697506278753
1761140459054386400,5.049386474609375,-0.002705829218029976,-0.0016716942191123962,-0.0005618183058686554
1761140459064446500,5.059446533203125,0.0027818544767796993,-0.0019445880316197872,0.0010065798414871097
1761140459074505200,5.069505126953125,-0.0008765298407524824,0.00011483440175652504,-0.0014842746313661337
1761140459084564500,5.079564453125,-0.0015703666722401977,-0.0017239679582417011,-0.003643878037109971
1761140459094624300,5.089624267578125,0.0008491152548231184,-0.001474163495004177,-0.0018558318261057138
1761140459104683500,5.09968359375,-0.0013111013686284423,-0.0019376878626644611,-0.0017703191842883825
1761140459114742300,5.1097421875,0.0001730782096274197,0.00012785987928509712,-0.001260323915630579
1761140459124802300,5.11980224609375,-0.001183955930173397,-0.0007497402839362621,0.00143238075543195
1761140459134861600,5.129861572265625,0.0008104852167889476,-0.00025998475030064583,-0.0004515394102782011
1761140459144920300,5.13992041015625,-0.0006489476654678583,-0.000018769875168800354,0.0012817472452297807
1761140459154980400,5.14998046875,-0.0014135412639006972,0.0010299831628799438,0.0010372691322118044
1761140459165039400,5.160039306640625,-0.00030781904933974147,0.0022916626185178757,-0.0003260727389715612
1761140459175098400,5.170098388671875,0.0013979356735944748,0.002183271571993828,0.0009770119795575738
1761140459185158100,5.180158203125,0.0022614598274230957,0.0014180522412061691,0.0009092355030588806
1761140459195217400,5.190217529296875,-0.002911197952926159,-0.000935649499297142,-0.00019757426343858242
1761140459205276200,5.200276123046875,0.0003895264817401767,0.00022801710292696953,-0.002068927511572838
1761140459215336400,5.21033642578125,-0.000981468940153718,-0.0003791837953031063,-0.000770104001276195
1761140459225395500,5.2203955078125,-0.00024028937332332134,-0.0009019952267408371,-0.0002033778582699597
1761140459235454200,5.2304541015625,-0.0009878387209028006,-0.0003784177824854851,-0.0009408072219230235
1761140459245514500,5.240514404296875,0.0011469863820821047,-0.0002681710757315159,0.0002905632136389613
1761140459255573200,5.2505732421875,0.00033818441443145275,-0.00022023404017090797,0.0000940219615586102
1761140459265632500,5.260632568359375,0.0013944386737421155,-0.000894633587449789,-0.0005536337266676128
1761140459275691300,5.270691162109375,-0.0003656444023363292,0.0000720941461622715,-0.0008609624928794801
1761140459285751300,5.280751220703125,0.00020290131215006113,-0.0026670382358133793,-0.0016971156001091003
1761140459295810600,5.290810546875,-0.002342548221349716,-0.0004808492958545685,0.00018174463184550405
1761140459305869300,5.300869384765625,0.002818886423483491,-0.001747424015775323,0.00070665666135028
1761140459315929300,5.310929443359375,0.0009560053003951907,-0.0020105442963540554,-0.00006539374589920044
1761140459325988400,5.32098828125,-0.0003127442323602736,0.000013630837202072144,0.002298389095813036
1761140459336047400,5.33104736328125,-0.0012730800081044436,-0.000778659712523222,-0.00019459601026028395
1761140459346107100,5.341107177734375,-0.0004502837546169758,-0.0012258319184184074,0.0007979861693456769
1761140459356166400,5.35116650390625,-0.0007640041876584291,-0.0015307641588151455,-0.0005775365279987454
1761140459366225200,5.36122509765625,-0.00004531454760581255,-0.0007477980107069016,-0.0015036746626719832
1761140459376285400,5.371285400390625,-0.0012908749049529433,0.0007606162689626217,0.002361370949074626
1761140459386344400,5.381344482421875,0.0000030543305911123753,0.00012841448187828064,0.0009083875920623541
1761140459396403200,5.3914033203125,-0.0012635451275855303,0.0011872872710227966,-0.0011675464920699596
1761140459406463500,5.40146337890625,0.001472611678764224,-0.0016577723436057568,-0.00003591447602957487
1761140459416522200,5.411522216796875,0.0002837765496224165,0.0009430707432329655,-0.0021978686563670635
1761140459426581500,5.42158154296875,0.0010840906761586666,0.0012862319126725197,-0.0028360961005091667
1761140459436641500,5.4316416015625,-0.000256810977589339,-0.0013585530687123537,-0.0004099563811905682
1761140459446700300,5.4417001953125,-0.0006314590573310852,-0.0012619700282812119,0.0009399323025718331
1761140459456759600,5.451759521484375,0.00020770297851413488,0.002262191381305456,-0.0011053753551095724
1761140459466819300,5.4618193359375,-0.0002848113072104752,-0.00026449887081980705,-0.001826372928917408
1761140459476878300,5.47187841796875,-0.0004616452497430146,0.0014708172529935837,-0.00008892657933756709
1761140459486937300,5.481937255859375,-0.0009098409791477025,0.0008656713180243969,-0.0016284624580293894
1761140459496997400,5.491997314453125,-0.00023792550200596452,0.003192740958184004,0.00012922391761094332
1761140459507056000,5.50205615234375,-0.0003240993246436119,0.0002655317075550556,0.0010264257434755564
1761140459517115400,5.512115478515625,0.000030367460567504168,0.002585943788290024,0.000855983467772603
1761140459527175400,5.522175537109375,0.0002893459750339389,-0.0006390525959432125,-0.0001647965982556343
1761140459537234400,5.532234375,-0.0015554255805909634,0.0005820067599415779,-0.001457761274650693
1761140459547293400,5.54229345703125,-0.0010286675533279777,-0.0030454685911536217,-0.0005920093390159309
1761140459557352200,5.552352294921875,-0.000058744451962411404,0.0009375549852848053,-0.0015294421464204788
1761140459567412500,5.56241259765625,-0.004515062086284161,0.0029078233055770397,-0.002359930658712983
1761140459577471200,5.57247119140625,-0.0013775918632745743,0.0003479928709566593,-0.0010166321881115437
1761140459587530500,5.582530517578125,0.0010772410314530134,-0.0007298411801457405,0.0021064607426524162
1761140459597590500,5.592590576171875,0.0011869631707668304,0.0019397116266191006,-0.00006188504630699754
1761140459607649300,5.602649169921875,0.002245261101052165,-0.0013635547365993261,-0.001818894874304533
1761140459617708500,5.61270849609375,-0.0015321667306125164,-0.00004182802513241768,0.0017263051122426987
1761140459627768300,5.622768310546875,-0.000514366605784744,-0.0010144030675292015,0.00047673427616246045
1761140459637827300,5.632827392578125,0.0011732785496860743,0.00030173128470778465,-0.0007435261504724622
1761140459647886300,5.64288623046875,-0.00048394326586276293,0.0010040178894996643,-0.0005234177806414664
1761140459657946400,5.6529462890625,0.0003837146796286106,0.0009097419679164886,-0.00040144502418115735
1761140459668005400,5.66300537109375,0.0010494875023141503,0.000475048553198576,-0.0017150997882708907
1761140459678064400,5.673064453125,-0.00026291829999536276,-0.0003116494044661522,0.0005576417897827923
1761140459688124400,5.68312451171875,0.00043551716953516006,-0.00014170119538903236,0.0015349115710705519
1761140459698183400,5.693183349609375,0.00018597894813865423,-0.0002807183191180229,0.00024487642804160714
1761140459708242400,5.703242431640625,0.0007332907407544553,-0.0003276057541370392,-0.0007164070848375559
1761140459718302200,5.71330224609375,0.0004240977577865124,0.0006186156533658504,-0.0015467805787920952
1761140459728361500,5.723361572265625,0.00046720332466065884,0.0014299438335001469,0.0005898515228182077
1761140459738420200,5.733420166015625,0.0005662728799507022,-0.0020803690422326326,0.0010167562868446112
1761140459748480300,5.743480224609375,0.0011495082871988416,-0.00014959648251533508,-0.001939607784152031
1761140459758539500,5.75353955078125,0.001352973747998476,0.0015154117718338966,-0.0015976580325514078
1761140459768598300,5.763598388671875,-0.00032483990071341395,-0.001556172501295805,-0.0003745376016013324
1761140459778658300,5.773658203125,0.0010906301904469728,0.0012249667197465897,-0.0008200844167731702
1761140459788717300,5.78371728515625,0.00047181834816001356,-0.0019569306168705225,0.0021673254668712616
1761140459798776300,5.7937763671875,-0.00194366869982332,-0.0009622396901249886,0.001100729452446103
1761140459808836400,5.80383642578125,-0.00008761067874729633,-0.0008427063003182411,0.0032326269429177046
1761140459818895400,5.813895263671875,-0.0013251816853880882,0.0004902058281004429,0.0011526981834322214
1761140459828954400,5.823954345703125,-0.0014256620779633522,0.0006059799343347549,-0.0010327819036319852
1761140459839014000,5.834013916015625,-0.0002749102422967553,0.0002866671420633793,-0.0015001667197793722
1761140459849072600,5.84407275390625,0.0005830983864143491,0.0011676838621497154,-0.0011644731275737286
1761140459859132000,5.8541318359375,0.00044408132089301944,0.0011873911134898663,-0.0005607345374301076
1761140459869192000,5.86419189453125,-0.00010732986265793443,0.0007723313756287098,-0.001281602424569428
1761140459879250700,5.874250732421875,0.00020798837067559361,-0.000021556857973337173,-0.00035295821726322174
1761140459889310000,5.88431005859375,0.002542046830058098,0.0024436800740659237,-0.0029707420617341995
1761140459899368700,5.89436865234375,0.001118054729886353,-0.0015966014470905066,-0.0011283672647550702
1761140459909428700,5.9044287109375,0.00047498970525339246,0.0012994473800063133,0.0008961492567323148
1761140459919487700,5.91448779296875,0.0008462343830615282,-0.0012888787314295769,-0.0002484773867763579
1761140459929546800,5.924546630859375,0.0012105881469324231,0.0005596638657152653,0.000669630418997258
1761140459939606800,5.934606689453125,-0.00014842295786365867,0.0002259695902466774,-0.0007269312627613544
1761140459949665800,5.944665771484375,0.0003480022423900664,-0.001300604548305273,0.0015830539632588625
1761140459959724500,5.954724609375,-0.0005689241224899888,-0.00018660444766283035,-0.0009738470544107258
1761140459969784800,5.964784912109375,-0.0008373558521270752,-0.0009049801155924797,-0.003786665853112936
1761140459979843800,5.97484375,-0.0007806305075064301,0.0003016982227563858,-0.00043614301830530167
1761140459989902800,5.98490283203125,0.002541695721447468,0.0019681290723383427,-0.001738155959174037
1761140459999963000,5.994962890625,0.0006058439612388611,0.0005494630895555019,-0.0003040438168682158
1761140460010021600,6.005021728515625,-0.002579613123089075,-0.0007442627102136612,0.003209742484614253
1761140460020081000,6.015080810546875,0.0004646463203243911,0.0033604674972593784,0.0010315431281924248
1761140460030141000,6.025140869140625,-0.002040002727881074,0.00025283079594373703,-0.0011008076835423708
1761140460040199700,6.03519970703125,0.001417313003912568,0.001318095251917839,0.000514665967784822
1761140460050259000,6.045259033203125,-0.0000031319214031100273,0.0003754706121981144,-0.0010770279914140701
1761140460060318700,6.055318603515625,0.00023948209127411246,0.0009112986735999584,0.0017208890058100224
1761140460070377700,6.065377685546875,-0.003469698829576373,-0.0014171588700264692,0.000024974695406854153
1761140460080436700,6.075436767578125,0.0006137259770184755,-0.000827268697321415,-0.0017910348251461983
1761140460090496800,6.085496826171875,0.0004675159871112555,-0.0005468577146530151,0.0007671669009141624
1761140460100555800,6.0955556640625,0.001505616120994091,-0.0014462072867900133,-0.0029657860286533833
1761140460110614800,6.10561474609375,-0.0008194548427127302,0.0013807378709316254,-0.0011399153154343367
1761140460120673500,6.115673583984375,0.00041278975550085306,-0.0011045238934457302,-0.0038246477488428354
1761140460130733800,6.12573388671875,-0.00039090384962037206,0.00013265199959278107,-0.0002800124930217862
1761140460140792800,6.135792724609375,-0.0014609619975090027,-0.00025643594563007355,-0.000493864412419498
1761140460150851800,6.145851806640625,0.0020486749708652496,-0.0016838591545820236,0.0010540118673816323
1761140460160912000,6.155911865234375,-0.0003332562046125531,-0.00007983716204762459,-0.0019684096332639456
1761140460170970600,6.165970703125,-0.0018948407378047705,-0.0012701721861958504,-0.0016402475303038955
1761140460181030000,6.17602978515625,0.00027590192621573806,-0.00012740958482027054,0.001452215132303536
1761140460191090000,6.18608984375,0.0017640169244259596,-0.001737847225740552,-0.00392455980181694
1761140460201148700,6.196148681640625,0.00008782342774793506,-0.0001127864234149456,-0.0011548728216439486
1761140460211208000,6.2062080078125,-0.0020174470264464617,0.0010717175900936127,0.0017601160798221827
1761140460221267700,6.216267822265625,0.0018902092706412077,-0.0031986611429601908,-0.0018719029612839222
1761140460231326700,6.22632666015625,0.0013340748846530914,-0.00006792647764086723,0.001163488021120429
1761140460241385700,6.2363857421875,0.0002533640945330262,-0.0012450437061488628,-0.0007055183523334563
1761140460251445800,6.24644580078125,-0.00018066022312268615,-0.0014659333974123001,0.0012244055978953838
1761140460261504800,6.2565048828125,0.0013898059260100126,0.0010076109319925308,-0.0013319626450538635
1761140460271563800,6.266563720703125,-0.0002276417799293995,-0.0000984780490398407,0.001000398537144065
1761140460281623800,6.276623779296875,-0.0010843807831406593,0.0007276344113051891,-0.0016638279194012284
1761140460291682800,6.286682861328125,0.0006682616658508778,-0.00003070663660764694,-0.0003653771709650755
1761140460301741800,6.296741943359375,0.0005188583163544536,0.0013594632036983967,-0.00010545260738581419
1761140460311801600,6.306801513671875,-0.001493035932071507,-0.00018748780712485313,-0.0014443190302699804
1761140460321860900,6.31686083984375,-0.0005225801141932607,-0.0023451808374375105,0.001008452381938696
1761140460331919600,6.326919677734375,-0.0012674365425482392,0.0013262866996228695,-0.0006668692803941667
1761140460341979000,6.336978759765625,0.000685193226672709,0.0006120270118117332,0.0004364783817436546
1761140460352039000,6.347038818359375,0.00081781973131001,0.00038931146264076233,0.0008000237285159528
1761140460362097700,6.35709765625,-0.00041895225876942277,0.0003698705695569515,-0.001148611307144165
1761140460372157000,6.367156982421875,-0.00017996830865740776,0.0015497473068535328,-0.0014128664042800665
1761140460382216700,6.377216796875,0.00046478293370455503,0.0024528251960873604,-0.0005470726755447686
1761140460392275700,6.387275634765625,-0.0011850969167426229,-0.0013210605829954147,-0.0008432677714154124
1761140460402334700,6.397334716796875,-0.00010012509301304817,-0.002294712234288454,-0.00037029036320745945
1761140460412394800,6.407394775390625,0.00021668983390554786,0.0005275877192616463,-0.00030884979059919715
1761140460422453800,6.417453857421875,-0.0008794672321528196,-0.0002681645564734936,0.002081071026623249
1761140460432512800,6.4275126953125,0.000781167414970696,0.0012771114706993103,0.0003930552047677338
1761140460442572800,6.43757275390625,0.00003734655911102891,-0.0001503429375588894,-0.0035058127250522375
1761140460452631800,6.4476318359375,-0.0008960271952673793,0.00015344563871622086,0.0008640175801701844
1761140460462690800,6.45769091796875,-0.0031075160950422287,-0.000429786741733551,0.0002512242062948644
1761140460472750600,6.46775048828125,-0.0012113350676372647,-0.00034091435372829437,-0.0001580933458171785
1761140460482809900,6.477809814453125,0.001435314305126667,-0.002750009996816516,0.002357262186706066
1761140460492868600,6.48786865234375,-0.0012711749877780676,0.0003501866012811661,0.0012429979396983981
1761140460502928600,6.4979287109375,-0.0013334930408746004,0.005698346998542547,0.001984688453376293
1761140460512988000,6.50798779296875,0.0023596417158842087,-0.01496863178908825,-0.009740185923874378
1761140460523046700,6.518046630859375,-0.00009605928789824247,0.010566022247076035,0.0064254687167704105
1761140460533106000,6.52810595703125,-0.0004960006917826831,0.004578643012791872,-0.001662632217630744
1761140460543165700,6.538165771484375,-0.0023439680226147175,0.002784737851470709,-0.0021068474743515253
1761140460553224700,6.548224609375,-0.0015322642866522074,0.0027636494487524033,0.000027367554139345884
1761140460563285000,6.558284912109375,0.002901099855080247,0.002193999011069536,0.0010681309504434466
1761140460573343700,6.56834375,-0.0012634380254894495,0.001736628357321024,0.0020898832008242607
1761140460583402800,6.57840283203125,0.0002801300142891705,0.003302567172795534,0.0006294056656770408
1761140460593461800,6.588461669921875,-0.0012952917022630572,0.0033930065110325813,-0.0005608733627013862
1761140460603521800,6.598521728515625,-0.0006713131442666054,0.0000376896932721138,-0.0006719271768815815
1761140460613580800,6.608580810546875,0.002044533845037222,0.00056814169511199,-0.0018967563519254327
1761140460623639800,6.618639892578125,-0.0004425921943038702,-0.00051549868658185,0.0015254055615514517
1761140460633699600,6.628699462890625,-0.0011138904374092817,0.0017980411648750305,0.00047297560377046466
1761140460643758800,6.6387587890625,0.0015239706262946129,0.0007290481589734554,-0.000621051003690809
1761140460653817600,6.648817626953125,0.0009069485240615904,-0.0003191716969013214,-0.0005504772416315973
1761140460663877600,6.658877685546875,-0.00018601276678964496,0.0009405035525560379,-0.0006404920131899416
1761140460673937000,6.66893701171875,-0.0009662083466537297,-0.0004610181786119938,0.00020621111616492271
1761140460683995600,6.67899560546875,0.0003584478981792927,0.00015150895342230797,-0.002367201494053006
1761140460694055700,6.6890556640625,0.001474586664699018,-0.0011358549818396568,0.00021742488024756312
1761140460704114700,6.69911474609375,-0.0001821658224798739,0.0020615365356206894,-0.0016124332323670387
1761140460714173700,6.709173583984375,-0.0013639384415000677,-0.0010329624637961388,-0.0015404606238007545
1761140460724234000,6.71923388671875,-0.00008642009925097227,-0.0026849214918911457,-0.0008264670614153147
1761140460734292700,6.729292724609375,0.00010063941590487957,-0.004960695281624794,-0.004902797285467386
1761140460744351700,6.739351806640625,-0.0015052466187626123,-0.004624071530997753,0.0010381826432421803
1761140460754411800,6.749411865234375,0.0018925871700048447,-0.006779633928090334,-0.0006795562221668661
1761140460764470800,6.759470703125,0.0012164105428382754,-0.0031430874951183796,-0.001905675744637847
1761140460774529800,6.76952978515625,0.0015792704652994871,-0.00008737342432141304,-0.00007074879249557853
1761140460784588800,6.7795888671875,-0.0003019865253008902,0.0007792194373905659,-0.0038218111731112003
1761140460794648800,6.78964892578125,-0.0016701080603525043,-0.0015719805378466845,0.00021697545889765024
1761140460804707800,6.799707763671875,0.0024732379242777824,-0.00023347558453679085,-0.0010267207399010658
1761140460814766800,6.809766845703125,0.0021056439727544785,0.0007287319749593735,0.001088657882064581
1761140460824826600,6.81982666015625,0.002101116580888629,0.0009740092791616917,-0.0006245535332709551
1761140460834885600,6.8298857421875,-0.0016113804886117578,-0.000038049183785915375,0.0006816548993811011
1761140460844944400,6.8399443359375,-0.0012039168504998088,0.0021201767958700657,0.000004945672117173672
1761140460855004700,6.850004638671875,-0.00023306329967454076,0.001031953375786543,0.0003268611035309732
1761140460865063400,6.8600634765625,0.0010774782858788967,0.00015497440472245216,0.0004363170301076025
1761140460875122400,6.870122314453125,-0.0006433186354115605,0.00010265829041600227,-0.001410186756402254
1761140460885182700,6.8801826171875,-0.0012049792567268014,0.00046298373490571976,0.000057481229305267334
1761140460895241500,6.890241455078125,0.002375778742134571,-0.0001169377937912941,0.00024056591792032123
1761140460905300700,6.90030078125,0.0011360773351043463,0.0002742805518209934,0.0012104891939088702
1761140460915360500,6.910360595703125,0.0021391697227954865,-0.0015471018850803375,-0.0012593594146892428
1761140460925419500,6.92041943359375,0.0010392842814326286,0.0014777164906263351,0.0027127452194690704
1761140460935478500,6.930478515625,0.0007159528322517872,-0.00161368353292346,0.00014385045506060123
1761140460945538600,6.94053857421875,-0.0020974106155335903,-0.00047864438965916634,0.0006594384321942925
1761140460955597600,6.95059765625,-0.000018532329704612494,-0.0012890417128801346,-0.001974951010197401
1761140460965656600,6.960656494140625,0.0007686980534344912,0.0010545402765274048,0.0014077962841838598
1761140460975715600,6.970715576171875,-0.0008399712969549,0.00038555124774575233,0.0011470632161945105
1761140460985775400,6.980775390625,0.000281485787127167,-0.0005175266414880753,-0.0017163676675409079
1761140460995834600,6.990834716796875,-0.0011861573439091444,0.0007865703664720058,0.0010066631948575377
1761140461005893400,7.000893310546875,0.0021278802305459976,-0.002081121550872922,0.000936089432798326
1761140461015953700,7.01095361328125,0.001471649738959968,-0.0007056011818349361,-0.00009456294355913997
1761140461026012400,7.021012451171875,0.00029080413514748216,0.00032371049746870995,0.0007025211816653609
1761140461036071400,7.031071533203125,0.0014050054596737027,-0.0012279525399208069,-0.002638517413288355
1761140461046131700,7.041131591796875,-0.0004078082856722176,0.0013864724896848202,-0.0008158498676493764
1761140461056190500,7.0511904296875,0.003175439778715372,-0.0010686395689845085,0.0006449546199291945
1761140461066249700,7.061249755859375,0.003082229057326913,-0.0007440005429089069,0.0007115336484275758
1761140461076309500,7.0713095703125,0.0009694017353467643,0.0025094193406403065,-0.0012828137259930372
1761140461086368500,7.081368408203125,-0.00039626721991226077,0.002027120441198349,-0.0008652301039546728
1761140461096427500,7.091427490234375,-0.0009321557590737939,0.0013687903992831707,-0.00025935214944183826
1761140461106487600,7.101487548828125,-0.0008778272895142436,0.001553347334265709,0.0006980542675592005
1761140461116546600,7.111546630859375,0.0019657001830637455,0.0024032616056501865,0.00003208417911082506
1761140461126605600,7.12160546875,-0.0013280973071232438,0.000371802132576704,-0.0017905831336975098
1761140461136665600,7.13166552734375,0.0007696678512729704,-0.0009968988597393036,0.000781291862949729
1761140461146724400,7.141724365234375,-0.0015568695962429047,-0.00021632621064782143,0.0017416276969015598
1761140461156783600,7.15178369140625,0.0015010987408459187,-0.0013400716707110405,0.001273892354220152
1761140461166842400,7.16184228515625,-0.00021717272466048598,-0.00005855876952409744,-0.0006305341375991702
1761140461176902700,7.171902587890625,-0.0011496150400489569,-0.00018453598022460938,0.00007715087849646807
1761140461186961400,7.18196142578125,-0.0022452394478023052,0.0007563591934740543,0.0012976776342839003
1761140461197020400,7.1920205078125,-0.0016230439068749547,0.0010001063346862793,-0.0013386965729296207
1761140461207080700,7.202080810546875,0.001401774468831718,-0.0003631655126810074,0.001148429699242115
1761140461217139500,7.212139404296875,0.001865970203652978,-0.001143310684710741,0.0014668748481199145
1761140461227198700,7.22219873046875,0.0010161554673686624,-0.0009259963408112526,-0.0019872449338436127
1761140461237258500,7.232258544921875,0.0006812206702306867,0.0009344578720629215,-0.0018021534197032452
1761140461247317500,7.2423173828125,-0.00018164346693083644,0.0006068889051675797,-0.0007808311493135989
1761140461257376500,7.25237646484375,-0.0022694373037666082,0.0008439389057457447,-0.0008868813165463507
1761140461267436500,7.2624365234375,0.0005686934455297887,-0.001350772101432085,-0.0006714315968565643
1761140461277495600,7.27249560546875,0.0010343253379687667,0.0005493867211043835,0.0006102715851739049
1761140461287554600,7.282554443359375,-0.0003372026258148253,0.002278310712426901,0.0006531485123559833
1761140461297614600,7.292614501953125,-0.0014670876553282142,0.0014310283586382866,0.0008860863163135946
1761140461307673300,7.30267333984375,-0.0013054338051006198,0.0008523236028850079,0.0007976693450473249
1761140461317732600,7.312732666015625,0.00022467889357358217,-0.0011254199780523777,0.00011271756375208497
1761140461327791400,7.322791259765625,0.0005943256546743214,-0.00031315581873059273,0.002094908384606242
1761140461337851600,7.3328515625,0.0014426310081034899,-0.0016251560300588608,-0.0026575010269880295
1761140461347910400,7.342910400390625,-0.00040586903924122453,0.00005609728395938873,-0.0006055354024283588
1761140461357969400,7.352969482421875,0.0015848905313760042,-0.0014899165835231543,0.000042193743865936995
1761140461368029700,7.36302978515625,0.00007913925219327211,0.00033408263698220253,0.00040012254612520337
1761140461378088400,7.37308837890625,0.0008446970023214817,0.0028697531670331955,-0.0011780076893046498
1761140461388147700,7.383147705078125,-0.0003483991022221744,0.001130442600697279,0.0034998347982764244
1761140461398207500,7.39320751953125,-0.00018309784354642034,0.0005090958438813686,0.003585880622267723
1761140461408266500,7.4032666015625,-0.0010382388718426228,-0.00007493561133742332,-0.0020810593850910664
1761140461418325500,7.413325439453125,0.0008384895045310259,-0.0011832742020487785,-0.00040489673847332597
1761140461428385500,7.423385498046875,0.0011716509470716119,-0.0010333382524549961,0.0007538446807302535
1761140461438444500,7.433444580078125,-0.0008655781857669353,0.0015691323205828667,-0.0007160534150898457
1761140461448503600,7.443503662109375,-0.0004932682495564222,0.0016370429657399654,-0.004591219127178192
1761140461458563600,7.4535634765625,-0.001628755358979106,0.001028209924697876,-0.0003061293391510844
1761140461468622300,7.463622314453125,0.0014378747437149286,0.0019472669810056686,-0.0005628580693155527
1761140461478681600,7.473681640625,0.002111671259626746,0.0027104225009679794,0.000681089935824275
1761140461488740400,7.483740234375,-0.003139549633488059,0.003507506102323532,-0.003166645299643278
1761140461498800600,7.493800537109375,0.0007624481804668903,-0.000131961889564991,0.0007740120054222643
1761140461508859600,7.503859619140625,-0.0012895173858851194,0.0016225283034145832,-0.00007127533899620175
1761140461518918400,7.51391845703125,-0.001702945213764906,0.0002956381067633629,-0.00322083942592144
1761140461528978700,7.523978759765625,0.0007729956414550543,0.0004951092414557934,-0.0009739305824041367
1761140461539037400,7.534037353515625,0.00020899326773360372,0.0006684064865112305,0.00004102714592590928
1761140461549096700,7.5440966796875,0.00032111239852383733,-0.002854955615475774,-0.002262340858578682
1761140461559156500,7.554156494140625,-0.0006875301478430629,0.00174229359254241,0.0008783018565736711
1761140461569215500,7.564215576171875,-0.00027021276764571667,0.0007649133913218975,0.002300163498148322
1761140461579274500,7.5742744140625,0.0007951955194585025,-0.0035343989729881287,0.0012588347308337688
1761140461589334500,7.58433447265625,-0.00008924026042222977,0.0026611792854964733,0.00045482636778615415
1761140461599393500,7.5943935546875,0.0010110203875228763,0.0004792683757841587,0.0009895751718431711
1761140461609452500,7.60445263671875,-0.00236293813213706,0.0002307957038283348,-0.0014935561921447515
1761140461619512600,7.6145126953125,-0.0006238110363483429,-0.0008609574288129807,-0.0028653363697230816
1761140461629571300,7.6245712890625,-0.0003982412163168192,0.0009843469597399235,-0.001286348095163703
1761140461639630600,7.634630615234375,-0.0006917344289831817,-0.00027985451743006706,-0.002827927004545927
1761140461649689300,7.644689453125,0.0013831343967467546,0.00010763527825474739,-0.0007125782431103289
1761140461659749600,7.65474951171875,-0.00250634690746665,-0.0008866982534527779,-0.0011791028082370758
1761140461669808600,7.66480859375,-0.0008605134207755327,0.001345030963420868,-0.003523217048496008
1761140461679867400,7.674867431640625,-0.00018249801360070705,0.00010028434917330742,0.0020599509589374065
1761140461689927700,7.684927734375,-0.00044721621088683605,0.0008789929561316967,-0.0017571577336639166
1761140461699986400,7.694986328125,0.0011817251797765493,-0.003120671957731247,-0.001390914199873805
1761140461710045700,7.705045654296875,-0.00007448793621733785,-0.0001927926205098629,-0.0004662647843360901
1761140461720105500,7.71510546875,-0.0002974633825942874,-0.00014374451711773872,-0.00011887250002473593
1761140461730164500,7.72516455078125,0.002318559680134058,0.0009268461726605892,0.00042334714089520276
1761140461740223500,7.735223388671875,0.002409860026091337,0.0015349076129496098,-0.00097975367680192
1761140461750283500,7.745283447265625,-0.00011534936493262649,-0.00033569661900401115,0.0009720770758576691
1761140461760342500,7.755342529296875,0.0024564533960074186,-0.00043815840035676956,0.00017896381905302405
1761140461770401500,7.765401611328125,-0.000985149759799242,0.0011141984723508358,0.0022506369277834892
1761140461780461600,7.775461669921875,-0.0008421295788139105,0.001150893047451973,-0.0006884335307404399
1761140461790520300,7.785520263671875,0.0022817584685981274,0.003496339078992605,-0.0004551406018435955
1761140461800579600,7.79557958984375,-0.0010513190645724535,-0.00013729603961110115,0.0024577730800956488
1761140461810638300,7.805638427734375,-0.0016963365487754345,-0.0018867268227040768,-0.0029641566798090935
1761140461820698600,7.81569873046875,-0.0013305043103173375,-0.0006314339116215706,-0.0008650958770886064
1761140461830757600,7.825757568359375,-0.001460466650314629,-0.001395228784531355,-0.0005766756366938353
1761140461840817400,7.8358173828125,0.0019208177691325545,0.000543481670320034,-0.0013001239858567715
1761140461850877200,7.845877197265625,0.00010454189032316208,-0.0004781070165336132,-0.0025342328008264303
1761140461860936400,7.8559365234375,-0.00035221001598984003,0.0007531512528657913,-0.001724052126519382
1761140461870995200,7.8659951171875,-0.001705628470517695,0.0023992513306438923,0.003676305990666151
1761140461881055200,7.87605517578125,-0.0036129194777458906,-0.000014710705727338791,0.00023274944396689534
1761140461891114500,7.886114501953125,0.001487566507421434,0.0010561463423073292,0.0004343507462181151
1761140461901173200,7.89617333984375,0.0000719865201972425,0.0003727036528289318,0.0017031118040904403
1761140461911233500,7.906233642578125,0.000951096008066088,0.0013689924962818623,0.001568888546898961
1761140461921292300,7.916292236328125,-0.0008827344863675535,0.0009617074392735958,0.00031292508356273174
1761140461931351300,7.926351318359375,0.0011346100363880396,0.002524184063076973,0.0004072010051459074
1761140461941411300,7.936411376953125,0.0024765946436673403,-0.0012260163202881813,-0.0007009821129031479
1761140461951470300,7.94647021484375,0.0008318264153786004,0.0003796033561229706,0.0007965133991092443
1761140461961529300,7.956529296875,0.00013937492622062564,-0.0015584796201437712,0.00043391220970079303
1761140461971588400,7.96658837890625,-0.001932564307935536,0.0011278511956334114,0.0008967695757746696
1761140461981648400,7.9766484375,-0.0004454767913557589,0.0000906023196876049,-0.0007451113197021186
1761140461991707400,7.986707275390625,-0.0021845209412276745,0.0021393722854554653,-0.001159765524789691
1761140462001766400,7.996766357421875,-0.000035175238735973835,-0.0018570946995168924,0.0027552859392017126
1761140462011826200,8.006826171875,-0.000025055196601897478,-0.0012781238183379173,0.0008383427048102021
1761140462021885400,8.016885498046875,0.0003469585790298879,-0.0009214864112436771,-0.0007943104719743133
1761140462031944200,8.026944091796874,-0.00013374199625104666,0.000856972299516201,-0.003672921098768711
1761140462042004200,8.037004150390626,0.00008177291601896286,0.0013269269838929176,-0.0020859066862612963
1761140462052063500,8.0470634765625,-0.0017153281951323152,0.001561551820486784,0.0010776622220873833
1761140462062122200,8.057122314453125,0.001254106406122446,0.0014912975020706654,0.0010599605739116669
1761140462072182500,8.0671826171875,-0.0006215579342097044,0.0013102027587592602,-0.000852988101541996
1761140462082241300,8.0772412109375,-0.00013052299618721008,-0.0008947649039328098,0.0003245716798119247
1761140462092300300,8.08730029296875,-0.0013936602044850588,0.002163076773285866,-0.0011063448619097471
1761140462102359300,8.097359375,0.0003500571474432945,0.0007279142737388611,0.0011696118162944913
1761140462112419300,8.10741943359375,0.0023498248774558306,-0.001090225763618946,0.0033448818139731884
1761140462122478300,8.117478271484375,0.0007630132022313774,-0.0014229738153517246,0.0022876423317939043
1761140462132537300,8.127537353515624,-0.0023880391381680965,0.0006798580288887024,-0.002448789542540908
1761140462142597400,8.137597412109375,0.002323424443602562,-0.0015270861331373453,0.002679556142538786
1761140462152656400,8.147656494140625,0.0023993246722966433,-0.0009084339253604412,-0.0016118614003062248
1761140462162715400,8.15771533203125,0.0014616585103794932,-0.0016023130156099796,-0.0002760361530818045
1761140462172775200,8.167775146484376,0.000059770478401333094,0.001423038076609373,-0.003355981782078743
1761140462182834400,8.17783447265625,-0.0014002956449985504,0.0013785329647362232,-0.0019413363188505173
1761140462192893200,8.18789306640625,0.0017587461043149233,-0.000644137617200613,0.001582025783136487
1761140462202953200,8.197953125,-0.0009098377195186913,0.0003440161235630512,0.00022301817080006003
1761140462213012500,8.208012451171875,0.001114164711907506,0.001293699722737074,-0.0012417203979566693
1761140462223071200,8.2180712890625,-0.0016109980642795563,0.0006241998635232449,0.0006504415650852025
1761140462233130500,8.228130615234376,-0.0011739733163267374,-0.00032708141952753067,0.0020246326457709074
1761140462243190300,8.238190185546875,0.0028064604848623276,0.00036449311301112175,0.0027301700320094824
1761140462253249300,8.248249267578124,-0.0022993518505245447,0.0011067157611250877,-0.0015473994426429272
1761140462263308300,8.258308349609376,-0.0004387213848531246,-0.0004277140833437443,0.001570829888805747
1761140462273368300,8.268368408203125,0.00031282263807952404,0.00026923511177301407,-0.0004957830533385277
1761140462283427300,8.27842724609375,-0.001407740288414061,0.000427433755248785,-0.0011160190915688872
1761140462293486300,8.288486328125,0.0019483751384541392,0.00008175568655133247,0.0009929380612447858
1761140462303546400,8.29854638671875,-0.0011334986193105578,-0.00041300663724541664,0.0011668943334370852
1761140462313605400,8.30860546875,0.0002779767964966595,0.0011207079514861107,0.001311770174652338
1761140462323664400,8.318664306640626,0.001050432212650776,-0.0000605657696723938,-0.0005869601154699922
1761140462333724200,8.32872412109375,0.0004211272462271154,-0.0012994683347642422,0.0007547404384240508
1761140462343783400,8.338783447265625,-0.0014763139188289642,0.0013415738940238953,0.002837762236595154
1761140462353842200,8.34884228515625,-0.0015032119117677212,0.0008787163533270359,-0.0016214345814660192
1761140462363901400,8.3589013671875,-0.002737447153776884,0.0016955151222646236,-0.0026216856203973293
1761140462373961500,8.36896142578125,-0.0011683126213029027,0.0003753858618438244,-0.001754293916746974
1761140462384020200,8.379020263671874,-0.0013205439317971468,-0.00040474534034729004,0.0010923279915004969
1761140462394079500,8.38907958984375,0.0014592634979635477,-0.0003410954959690571,-0.001638211077079177
1761140462404139300,8.39913916015625,0.0014695985009893775,-0.0012375912629067898,-0.00005080562550574541
1761140462414198300,8.4091982421875,0.0023865248076617718,0.00019598845392465591,0.002140976022928953
1761140462424257300,8.41925732421875,0.0018806066364049911,-0.0000310591422021389,0.0009828187758103013
1761140462434317300,8.4293173828125,0.00038897001650184393,-0.0025426861830055714,0.0012786958832293749
1761140462444376600,8.43937646484375,0.0007960971561260521,0.0003867750056087971,-0.0008517897804267704
1761140462454435300,8.449435302734376,0.0027103773318231106,0.0008994336239993572,0.0026739691384136677
1761140462464495400,8.459495361328125,0.0011375308968126774,0.00019787531346082687,0.0008903203415684402
1761140462474554400,8.469554443359375,0.000024595821741968393,0.00022104475647211075,-0.0026106713339686394
1761140462484613400,8.47961328125,-0.0010517986956983805,0.0015504835173487663,-0.0014588816557079554
1761140462494672400,8.48967236328125,0.002456649672240019,-0.003726570401340723,0.0029103003907948732
1761140462504732400,8.499732421875,0.0009972905972972512,-0.0012745955027639866,-0.0015219923807308078
1761140462514791200,8.509791259765626,0.0008843725663609803,0.0010380935855209827,-0.0013076079776510596
1761140462524850400,8.519850341796875,-0.002675653900951147,0.0021752039901912212,-0.000054862757679075
1761140462534910500,8.529910400390625,0.00112387805711478,0.001463873777538538,0.0004980094963684678
1761140462544969200,8.53996923828125,-0.0007829132955521345,0.0008441731333732605,-0.0007152519538067281
1761140462555028500,8.550028564453125,-0.0003485516645014286,-0.0008059213869273663,-0.0016851751133799553
1761140462565088300,8.560088134765625,-0.0004553851904347539,-0.001335932407528162,-0.0011443649418652058
1761140462575147300,8.570147216796874,-0.0014133242657408118,0.0008270866237580776,-0.0006117327138781548
1761140462585206300,8.580206298828125,-0.0013742069713771343,-0.0005406830459833145,-0.002838141517713666
1761140462595266300,8.590266357421875,-0.0019577054772526026,-0.0012655952014029026,-0.00013769615907222033
1761140462605325600,8.60032568359375,0.0032050979789346457,0.0006567267701029778,-0.000770656974054873
1761140462615384300,8.61038427734375,-0.0008500972762703896,-0.0036187118384987116,-0.0018574928399175406
1761140462625443600,8.620443603515625,-0.0007625787984579802,0.00036436039954423904,-0.0014150356873869896
1761140462635503400,8.63050341796875,-0.00029066659044474363,-0.0013320734724402428,0.0013482602080330253
1761140462645562400,8.640562255859376,0.0006582686910405755,-0.0007136021740734577,0.001974959159269929
1761140462655621400,8.650621337890625,-0.0027660238556563854,0.0018270532600581646,-0.00146717659663409
1761140462665681400,8.660681396484375,-0.00009587407112121582,0.0007823691703379154,-0.00026316673029214144
1761140462675740200,8.670740234375,-0.0004069312708452344,0.0005469457246363163,-0.003345242701470852
1761140462685799400,8.68079931640625,-0.00008970825001597404,0.0022950018756091595,-0.0014541596174240112
1761140462695859500,8.690859375,-0.00009583355858922005,0.000520004890859127,0.0012649277923628688
1761140462705918200,8.700918212890626,0.0004997989744879305,0.0012750918976962566,-0.0010707107139751315
1761140462715977500,8.7109775390625,-0.001226994558237493,-0.00043625524267554283,0.0012419783743098378
1761140462726037200,8.721037353515625,0.0013260331470519304,0.0001515708863735199,-0.002641100902110338
1761140462736096300,8.73109619140625,-0.001430072239600122,-0.0016615092754364014,-0.00008712941780686378
1761140462746155300,8.7411552734375,-0.0025314546655863523,0.0014052856713533401,0.0006179248448461294
1761140462756214300,8.75121435546875,0.00011439574882388115,-0.0013787825591862202,-0.0006915514240972698
1761140462766274600,8.761274658203124,0.0016698826802894473,0.001990919467061758,-0.0007589790038764477
1761140462776333300,8.771333251953125,0.0008317859028466046,-0.0018136724829673767,0.0006082879262976348
1761140462786392600,8.781392578125,0.0013979461509734392,-0.0011528120376169682,0.00047906304826028645
1761140462796452400,8.791452392578124,0.0014386925613507628,-0.0010225833393633366,-0.0021316336933523417
1761140462806511400,8.801511474609375,0.0007589546730741858,-0.0016268121544271708,0.00031473010312765837
1761140462816570400,8.8115703125,0.0020250214729458094,0.001496809534728527,-0.00030259060440585017
1761140462826630400,8.82163037109375,0.00021218392066657543,0.0009129778482019901,0.0012156260199844837
1761140462836689000,8.83168896484375,0.0019376459531486034,0.0008360124193131924,-0.0016435435973107815
1761140462846748000,8.841747802734375,0.00015908468049019575,-0.0012943381443619728,-0.0011420132359489799
1761140462856808000,8.851807861328124,0.001412634621374309,-0.0005236193537712097,0.0015818679239600897
1761140462866867000,8.861866943359376,-0.0004371419781818986,-0.00015961285680532455,0.00014448672300204635
1761140462876926000,8.871926025390625,-0.000587344286032021,-0.0008890526369214058,-0.0024182733613997698
1761140462886984700,8.881984619140624,0.000058181409258395433,-0.0016214214265346527,0.0018041569273918867
1761140462897045000,8.892044921875,-0.00115701905451715,-0.0005881148390471935,-0.001062469556927681
1761140462907104000,8.90210400390625,-0.0015571219846606255,-0.00017072772607207298,-0.0006579227047041059
1761140462917163000,8.9121630859375,0.0009449179051443934,-0.0025436042342334986,0.0016790011432021856
1761140462927223000,8.92222314453125,-0.0017360758502036333,0.001452877651900053,-0.001753167831338942
1761140462937281800,8.93228173828125,0.0013276246609166265,-0.000455277506262064,0.000003985885996371508
1761140462947341000,8.942341064453124,0.0006625367095693946,-0.0006775697693228722,0.0006796205416321754
1761140462957400800,8.95240087890625,0.0014156786492094398,-0.0003806273452937603,0.0002415305352769792
1761140462967459800,8.9624599609375,-0.0016472715651616454,0.0002480987459421158,0.001232676673680544
1761140462977518800,8.972518798828125,-0.0006472546374425292,-0.000934345182031393,-0.0012003873707726598
1761140462987579000,8.982578857421874,-0.00012013211380690336,-0.0005607516504824162,0.0009184845839627087
1761140462997638000,8.992637939453125,-0.00046581041533499956,0.0007857424207031727,0.00031687645241618156
1761140463007697000,9.00269677734375,0.0029166254680603743,-0.00026273680850863457,-0.0006587752723135054
1761140463017756000,9.012755859375,0.0006010070210322738,-0.0016680872067809105,-0.000571157259400934
1761140463027816000,9.02281591796875,-0.000021228042896836996,-0.0005644639022648335,-0.0001381926704198122
1761140463037875000,9.032875,-0.0019626724533736706,-0.0011136075481772423,-0.0017691125394776464
1761140463047933700,9.04293359375,-0.0015821794513612986,0.001331893727183342,-0.00035135523648932576
1761140463057994000,9.052993896484375,0.0024075021501630545,-0.0022090452257543802,-0.0007284589228220284
1761140463068053000,9.063052978515625,-0.0006047775968909264,0.0004953639581799507,-0.001787323970347643
1761140463078112000,9.073112060546874,0.0008940494735725224,0.0003046812489628792,-0.0009518903098069131
1761140463088172000,9.083172119140626,-0.0005635900306515396,-0.0015830732882022858,-0.0019863450434058905
1761140463098230800,9.093230712890625,-0.0007580008241347969,0.0014547943137586117,-0.00003211735747754574
1761140463108290000,9.1032900390625,-0.0007690489292144775,-0.0006414293311536312,-0.0011408667778596282
1761140463118348800,9.113348876953125,0.0004972841124981642,-0.0027370708994567394,0.00014943472342565656
1761140463128408800,9.123408935546875,-0.001550512621179223,-0.001593965571373701,-0.0014095057267695665
1761140463138467800,9.1334677734375,-0.0011883226688951254,-0.0012445589527487755,-0.0019740958232432604
1761140463148526800,9.14352685546875,0.0008106640307232738,-0.0016925062518566847,-0.0010559875518083572
1761140463158587000,9.1535869140625,-0.000571782817132771,0.0006468147039413452,-0.0018320325762033463
1761140463168646000,9.16364599609375,0.0006829623598605394,0.0021988218650221825,0.0003786302113439888
1761140463178705000,9.173704833984376,0.0004568599979393184,-0.002098721219226718,-0.0018672135192900896
1761140463188765000,9.183764892578125,0.00023425044491887093,-0.0009422162547707558,0.0000779147376306355
1761140463198824000,9.193823974609375,-0.0026411644648760557,0.0019760755822062492,-0.001396411214955151
1761140463208882700,9.203882568359376,-0.0013341461308300495,-0.0015237927436828613,-0.001687516923993826
1761140463218942000,9.21394189453125,-0.00004251295467838645,0.0007532099261879921,0.0005069278995506465
1761140463229002000,9.224001953125,-0.00003069051308557391,0.00005313381552696228,0.0012759013334289193
1761140463239061000,9.23406103515625,0.0023898566141724586,-0.0012859036214649677,0.0010018619941547513
1761140463249120000,9.2441201171875,-0.0007610736647620797,0.0012761987745761871,-0.0004777041031047702
1761140463259179800,9.2541796875,-0.0013514964375644922,0.001097767148166895,-0.0016042212955653667
1761140463269239000,9.264239013671874,-0.0007408365490846336,-0.0005048932507634163,-0.0008492740453220904
1761140463279297800,9.2742978515625,-0.0015014354139566422,-0.0003693383187055588,0.0002934883814305067
1761140463289357800,9.28435791015625,-0.00035103270784020424,0.0002733161672949791,0.0017141273710876703
1761140463299416800,9.294416748046874,-0.0016562480013817549,0.0003580045886337757,0.0008240989409387112
1761140463309475800,9.304475830078125,-0.0022741337306797504,0.0006519518792629242,-0.0012737640645354986
1761140463319535900,9.314535888671875,0.0008050129981711507,-0.0017827097326517105,0.00037073789280839264
1761140463329595000,9.324594970703124,0.0012028870405629277,0.00023145973682403564,-0.00009910407243296504
1761140463339654000,9.33465380859375,-0.0024299309588968754,-0.00025616493076086044,-0.002073837909847498
1761140463349713000,9.344712890625,0.0005334749585017562,0.0003347848542034626,-0.0007598527590744197
1761140463359773000,9.35477294921875,-0.00011074368376284838,0.0001646089367568493,0.00015361153054982424
1761140463369831700,9.364831787109376,0.000019943283405154943,-0.0007165251299738884,-0.0011554885422810912
1761140463379891000,9.374890869140625,-0.00022160541266202927,0.00019400985911488533,-0.0010018241591751575
1761140463389951000,9.384950927734375,-0.00046733126509934664,0.0008399435319006443,0.0018193924333900213
1761140463400010000,9.395010009765626,-0.0007392399711534381,-0.0025502603966742754,-0.0000698540243320167
1761140463410069000,9.405069091796875,0.00010174763156101108,-0.0008098985999822617,0.0009552681003697217
1761140463420128800,9.415128662109375,-0.0011909507447853684,-0.002582498360425234,0.0006055950652807951
1761140463430188000,9.42518798828125,-0.0005540746496990323,-0.0008640163578093052,0.0000614392920397222
1761140463440246800,9.435246826171875,0.00013381987810134888,0.0012329565361142159,0.0018207235261797905
1761140463450306000,9.44530615234375,-0.002475117100402713,0.00007016817107796669,-0.0012241185177117586
1761140463460366000,9.455365966796874,-0.0017139855772256851,-0.000039021484553813934,-0.0013258513063192368
1761140463470424800,9.4654248046875,0.0008888178272172809,-0.0016326666809618473,0.0001466868561692536
1761140463480484000,9.475484130859375,0.0015468848869204521,-0.0013711443170905113,0.0016287360340356827
1761140463490543900,9.4855439453125,0.0014045177958905697,-0.001087964978069067,0.0006231453153304756
1761140463500603000,9.495602783203125,-0.0016538564814254642,0.00038369791582226753,-0.003415272105485201
1761140463510662000,9.505661865234375,0.0004539108194876462,-0.0023834463208913803,0.0007185784634202719
1761140463520722000,9.515721923828124,0.00008346512913703918,-0.0004872754216194153,-0.0005520157283172011
1761140463530780700,9.52578076171875,-0.001992505742236972,0.0011550933122634888,-0.0002827362040989101
1761140463540840000,9.53583984375,0.00012577255256474018,0.0007103453390300274,0.0007931808358989656
1761140463550898700,9.545898681640624,-0.001477010897360742,0.001094580627977848,0.002401826437562704
1761140463560959000,9.555958984375,-0.002769709564745426,-0.0009603146463632584,-0.0007476278115063906
1761140463571018000,9.56601806640625,0.0014571070205420256,-0.0005195899866521358,0.00016361591406166553
1761140463581076700,9.57607666015625,-0.000350114016328007,-0.0008301143534481525,-0.0023176514077931643
1761140463591137000,9.586136962890626,0.000524472096003592,-0.00033630337566137314,-0.00010810961248353124
1761140463601195800,9.59619580078125,0.0012837393442168832,-0.0018865293823182583,-0.0003416687832213938
1761140463611255000,9.606255126953124,-0.00036933255614712834,-0.0022282134741544724,0.000946397369261831
1761140463621315000,9.616315185546876,0.00020537764066830277,0.000297528225928545,-0.00020062614930793643
1761140463631373800,9.626373779296875,-0.0008467361913062632,0.00032145576551556587,-0.00012275902554392815
1761140463641433000,9.63643310546875,0.0013780684676021338,0.0018176198936998844,-0.001023706397973001
1761140463651492900,9.646492919921876,-0.001147606410086155,-0.00017733406275510788,0.002644078806042671
1761140463661551900,9.6565517578125,0.00054270209511742,0.00036461930721998215,0.001524752238765359
1761140463671611000,9.66661083984375,0.0005838512443006039,-0.0004896842874586582,0.0023752888664603233
1761140463681670000,9.676669921875,0.0009220726788043976,0.0005782432854175568,-0.0004932019510306418
1761140463691729700,9.686729736328125,0.0006722701946273446,-0.0011929483152925968,-0.00054562883451581
1761140463701789000,9.696788818359375,-0.0020912918262183666,0.000442498829215765,-0.0001376325380988419
1761140463711847700,9.70684765625,-0.0005750197451561689,-0.0016423964407294989,-0.0018430587369948626
1761140463721908000,9.716907958984375,-0.0016884873621165752,0.00023886049166321754,0.0000887982314452529
1761140463731967000,9.726967041015625,-0.0016324779717251658,-0.00002049701288342476,-0.0014311723643913865
1761140463742025700,9.737025634765626,-0.0009714813204482198,0.0006532827392220497,0.001226395950652659
1761140463752086000,9.7470859375,0.00076196005102247,-0.0016647947486490011,0.0006230366416275501
1761140463762144800,9.757144775390625,0.0014679641462862492,-0.00025411834940314293,-0.001456625759601593
1761140463772204000,9.7672041015625,0.0010374360717833042,-0.000584715511649847,-0.00019377120770514011
1761140463782262800,9.7772626953125,-0.0014456952922046185,0.00030717719346284866,0.0004416590090841055
1761140463792322800,9.78732275390625,0.0026647266931831837,-0.0024523150641471148,0.0018008939223363996
1761140463802382000,9.797382080078124,-0.0006285383133217692,0.0008452110923826694,-0.00038875709287822247
1761140463812440800,9.80744091796875,0.0011944678844884038,-0.0024551067035645247,-0.000919187965337187
1761140463822500900,9.8175009765625,0.0008091084891930223,0.0012104683555662632,-0.0013783168978989124
1761140463832559900,9.827559814453124,-0.0012469599023461342,0.0005247332155704498,0.001523803104646504
1761140463842619400,9.837619384765626,-0.001321262214332819,-0.000021480955183506012,-0.0032967845909297466
1761140463852679200,9.84767919921875,0.002270260825753212,-0.0014192471280694008,0.000788968987762928
1761140463862738400,9.857738525390625,-0.001388389733619988,-0.0007414729334414005,-0.00040519237518310547
1761140463872797200,9.867797119140626,-0.0002630844828672707,0.0002231653779745102,0.001895906520076096
1761140463882856400,9.8778564453125,-0.0015169007238000631,0.0007115891203284264,0.0018261317163705826
1761140463892916500,9.88791650390625,0.001282104873098433,-0.0006316299550235271,0.0003005938488058746
1761140463902975200,9.897975341796876,0.002391844056546688,-0.00015092967078089714,0.0022095476742833853
1761140463913034500,9.908034423828125,-0.00026764976792037487,-0.0000991281121969223,0.0004846860538236797
1761140463923094300,9.91809423828125,-0.00004234630614519119,-0.0011342987418174744,0.0019353098468855023
1761140463933153300,9.9281533203125,0.0005672168917953968,0.0019065001979470253,0.0009203621302731335
1761140463943212300,9.93821240234375,-0.0006352002965286374,0.0002233823761343956,-0.0004362520994618535
1761140463953272300,9.948272216796875,0.0005158410640433431,-0.001268959604203701,-0.001251165522262454
1761140463963331600,9.95833154296875,-0.0002016145153902471,-0.0016085123643279076,0.00010305194882676005
1761140463973390300,9.968390380859375,-0.0017706234939396381,0.0015963264741003513,0.000539743690751493
1761140463983449300,9.978449462890625,-0.0010475751478224993,0.00006793811917304993,-0.0017228780779987574
1761140463993509400,9.98850927734375,0.0007690790225751698,-0.000653659924864769,0.003153561381623149
1761140464003568400,9.998568359375,0.0005842556711286306,0.0013892510905861855,0.0010912093566730618
1761140464013627400,10.00862744140625,-0.000003986468072980642,0.0018259906210005283,-0.0015973006375133991
1761140464023687400,10.0186875,0.0009696652414277196,0.0012163929641246796,0.00016304885502904654
1761140464033746200,10.02874609375,0.0011624511098489165,-0.0010996493510901928,-0.0003942736657336354
1761140464043805400,10.038805419921875,-0.0010953769087791443,0.000769889447838068,-0.00014260492753237486
1761140464053865500,10.048865478515625,-0.00038223067531362176,0.0007691751234233379,-0.0007139779627323151
1761140464063924200,10.05892431640625,0.002347775734961033,0.0006376146338880062,-0.0011288984678685665
1761140464073983500,10.0689833984375,0.0006116801523603499,0.00010994728654623032,0.000645669992081821
1761140464084042200,10.079042236328124,0.000029246846679598093,-0.002470922190696001,0.002406285610049963
1761140464094102300,10.089102294921876,-0.00036709458800032735,-0.0005023307166993618,-0.0012173973955214024
1761140464104161300,10.099161376953125,-0.0005013179616071284,-0.0006322930566966534,-0.002935668919235468
1761140464114220300,10.10922021484375,-0.0015098470030352473,0.0022938339971005917,-0.0009455688996240497
1761140464124280600,10.119280517578124,-0.0013162352843210101,0.0008464055135846138,0.001359130721539259
1761140464134339300,10.12933935546875,-0.0005031073233112693,-0.001924585085362196,0.0005985602620057762
1761140464144398300,10.1393984375,0.0013970581348985434,0.0013417820446193218,-0.0018779131351038814
1761140464154458400,10.149458251953124,0.0009346968727186322,0.0002563172020018101,-0.0005576687399297953
1761140464164517400,10.159517333984375,0.0009807695169001818,-0.001415881561115384,-0.0008823079988360405
1761140464174576400,10.169576416015625,-0.001827182830311358,0.0003299824893474579,0.0006441165460273623
1761140464184635400,10.179635498046874,0.00027671444695442915,-0.0000894651748239994,0.00045183629845269024
1761140464194695400,10.1896953125,0.0004192242631688714,0.00043372297659516335,-0.0012799076503142715
1761140464204754400,10.19975439453125,0.00002481014234945178,0.0002885805442929268,-0.0003097179578617215
1761140464214813400,10.2098134765625,0.0019318275153636932,-0.0006129913963377476,-0.0007070873980410397
1761140464224873200,10.219873291015626,-0.0026623918674886227,-0.0018958363216370344,-0.001472746254876256
1761140464234932500,10.229932373046875,0.0014484726125374436,-0.0014619962312281132,-0.0012352338526397943
1761140464244991200,10.2399912109375,0.0026136054657399654,-0.0011805002577602863,0.0007480222848244011
1761140464255051300,10.25005126953125,-0.001414344646036625,0.000993578229099512,0.0011938937241211534
1761140464265110300,10.2601103515625,0.000009115086868405342,-0.0005031186155974865,0.000276434700936079
1761140464275169300,10.270169189453124,-0.00210480741225183,-0.00003851298242807388,-0.003211679169908166
1761140464285228300,10.280228271484376,-0.001575371017679572,0.0008360687643289566,-0.0016558603383600712
1761140464295288300,10.290288330078125,0.00021485844627022743,-0.00008102739229798317,-0.0009406730532646179
1761140464305347300,10.300347412109375,-0.0002245631767436862,-0.0015002258587628603,-0.0016946140676736832
1761140464315406300,10.31040625,0.00008542946306988597,-0.001110800076276064,-0.0002017273218370974
1761140464325466400,10.32046630859375,0.0014977038372308016,0.00041918596252799034,0.002399648306891322
1761140464335525400,10.330525390625,-0.0022669541649520397,0.0010369643568992615,-0.0015084624756127596
1761140464345584400,10.34058447265625,0.00043455633567646146,-0.0021710796281695366,0.00007771613309159875
1761140464355643400,10.350643310546875,0.00006658537313342094,-0.0005419990047812462,0.0003050097147934139
1761140464365703400,10.360703369140625,-0.0024378513917326927,-0.0010607829317450523,-0.0015488166827708483
1761140464375762400,10.370762451171874,0.0014076712541282177,0.0015553818084299564,-0.00020285084610804915
1761140464385821400,10.380821533203125,-0.0011050213361158967,-0.000472349114716053,-0.0008193726534955204
1761140464395881500,10.390881591796875,0.00044983759289607406,0.0005958499386906624,-0.0016910575795918703
1761140464405940200,10.400940185546874,-0.0024285069666802883,0.00017187464982271194,-0.0025632428005337715
1761140464415999500,10.41099951171875,-0.00032749574165791273,-0.002073640702292323,0.0008972178911790252
1761140464426059300,10.421059326171875,-0.0014683938352391124,0.0001783282496035099,-0.0006958851008675992
1761140464436118300,10.4311181640625,0.0002427112776786089,-0.0018731625750660896,0.002157375914976001
1761140464446177300,10.44117724609375,-0.0022180494852364063,-0.00008724676445126534,-0.0017742487834766507
1761140464456236300,10.451236328125,-0.0007484705420210958,-0.00025788508355617523,0.0010134432232007384
1761140464466296300,10.46129638671875,0.0001679231645539403,0.0018089944496750832,0.00007680949056521058
1761140464476355300,10.471355224609376,0.0014712664997205138,-0.001208093948662281,-0.00006876775296404958
1761140464486414300,10.481414306640625,-0.00002622895408421755,-0.0006701354868710041,-0.0014634651597589254
1761140464496474400,10.491474365234374,0.001036836882121861,-0.0008652382530272007,0.0008069556206464767
1761140464506533400,10.501533447265626,-0.0003477404825389385,0.00047646230086684227,-0.0016727135516703129
1761140464516592400,10.51159228515625,0.0007046336540952325,0.0016346662305295467,-0.0008931110496632755
1761140464526652400,10.52165234375,0.0004572259495034814,0.0011574276722967625,0.0008613794925622642
1761140464536711400,10.53171142578125,-0.0016115435864776373,-0.001229526475071907,-0.0021233605220913887
1761140464546770400,10.5417705078125,0.0003125902730971575,-0.0023278137668967247,-0.00032599299447610974
1761140464556829400,10.551829345703124,0.0017977417446672916,-0.0012885984033346176,-0.0007607444422319531
1761140464566889200,10.56188916015625,0.0003066378994844854,0.0015742997638881207,0.002744241850450635
1761140464576948500,10.571948486328125,-0.0011994525557383895,0.00016496796160936356,-0.00144632114097476
1761140464587007200,10.58200732421875,-0.0008404584368690848,-0.0010374495759606361,-0.0012745473068207502
1761140464597067300,10.5920673828125,-0.0017236099811270833,0.0007061357609927654,-0.0003689783625304699
1761140464607126300,10.602126220703125,-0.0003004167228937149,0.0004816316068172455,-0.00031518249306827784
1761140464617185300,10.612185302734375,-0.0025917389430105686,0.0013860943727195263,-0.001096554915420711
1761140464627245300,10.622245361328124,-0.0013523040106520057,0.0007959380745887756,-0.000918389530852437
1761140464637304300,10.63230419921875,0.0008930739713832736,-0.00003851344808936119,0.0017360674683004618
1761140464647363300,10.64236328125,0.0009641803335398436,-0.0009884629398584366,0.0002950310008600354
1761140464657422300,10.65242236328125,-0.0010717990808188915,0.002247303258627653,0.001248720334842801
1761140464667482400,10.662482421875,0.0014483502600342035,-0.0004259776324033737,-0.0025343000888824463
1761140464677541400,10.672541259765625,-0.0008383389795199037,-0.0013716451358050108,-0.0013494323939085007
1761140464687600400,10.682600341796874,0.00013984006363898516,-0.00008959928527474403,0.00022662623086944222
1761140464697660400,10.692660400390626,-0.0021587000228464603,0.0012215506285429,-0.0019592149183154106
1761140464707719400,10.702719482421875,-0.0006012833910062909,0.0018412680365145206,0.00026585609884932637
1761140464717778400,10.7127783203125,-0.0005492947530001402,-0.0031992788426578045,0.000010966148693114519
1761140464727837400,10.72283740234375,0.0010459388140588999,0.0002593682147562504,-0.0014084986178204417
1761140464737897500,10.7328974609375,-0.002448148326948285,0.00047110067680478096,-0.0005601560114882886
1761140464747956200,10.742956298828124,0.0015580449253320694,-0.0016724779270589352,0.0021895577665418386
1761140464758015500,10.753015380859376,-0.00022547144908457994,0.0016534468159079552,-0.0016233050264418125
1761140464768075500,10.763075439453125,-0.0021109895315021276,-0.0003734850324690342,-0.000639266858343035
1761140464778134300,10.77313427734375,0.0009610505076125264,0.0005212994292378426,0.0014029801823198795
1761140464788193500,10.783193603515626,0.0010987359564751387,-0.0014433145988732576,0.0007323962636291981
1761140464798253300,10.79325341796875,0.0017368907574564219,0.0010185539722442627,-0.00027140090242028236
1761140464808312300,10.803312255859375,-0.0005723361391574144,0.002719514537602663,-0.0020980630069971085
1761140464818371300,10.813371337890626,-0.0013018579920753837,-0.00040538376197218895,0.0007171730394475162
1761140464828430300,10.823430419921875,0.0007956476183608174,-0.0001433286815881729,-0.00164185487665236
1761140464838490400,10.833490478515625,0.0011816404294222593,0.0009746700525283813,-0.003705523442476988
1761140464848548900,10.843548828125,0.0013403648044914007,0.0014654905535280704,0.001188301364891231
1761140464858607900,10.85360791015625,-0.00008440599776804447,-0.00031023425981402397,0.0030821741092950106
1761140464868668000,10.86366796875,-0.000013565877452492714,-0.0010042539797723293,-0.0014105786103755236
1761140464878727000,10.873726806640626,0.0011085007572546601,0.0013081859797239304,-0.001729832380078733
1761140464888786000,10.883785888671875,-0.0024364329874515533,0.0009393384680151939,0.00029337103478610516
1761140464898846000,10.893845947265625,-0.0024567851796746254,0.0026107574813067913,-0.00024054344976320863
1761140464908904700,10.90390478515625,0.0001967884600162506,0.00018754694610834122,-0.00047889637062326074
1761140464918964000,10.9139638671875,-0.001456946018151939,0.001322318334132433,0.0018538206350058317
1761140464929022700,10.924022705078125,0.0007572061149403453,-0.00019062357023358345,0.0010226480662822723
1761140464939082800,10.934082763671874,0.0016242638230323792,-0.002154526300728321,0.001306688878685236
1761140464949141800,10.944141845703125,0.001117996871471405,0.0025536762550473213,0.0006214575842022896
1761140464959200800,10.95420068359375,0.00007259735139086843,0.0000841817818582058,0.0012237171176820993
1761140464969261000,10.964260986328124,-0.0010102438973262906,0.0011124280281364918,0.001439699437469244
1761140464979319800,10.97431982421875,0.0019556491170078516,0.000509155448526144,0.001728817354887724
1761140464989378800,10.98437890625,-0.00004704797174781561,0.0017717601731419563,0.0011916577350348234
1761140464999437800,10.994437744140624,0.0005245482316240668,-0.0004048817791044712,-0.0001764101325534284
1761140465009497900,11.004497802734376,-0.0007670848863199353,0.0006806226447224617,-0.0007183633861131966
1761140465019556900,11.014556884765625,0.0002581452135927975,0.00025736214593052864,0.0007697500986978412
1761140465029615900,11.024615966796874,-0.0030002323910593987,0.0016672397032380104,-0.0017163108568638563
1761140465039676000,11.034676025390626,0.0037328116595745087,0.0006577186286449432,-0.00023814308224245906
1761140465049735000,11.04473486328125,0.0003689728328026831,0.0006228308193385601,0.002050044946372509
1761140465059794000,11.0547939453125,-0.0004906177055090666,0.001390565186738968,-0.00013223610585555434
1761140465069853700,11.064853759765626,0.0015813215868547559,-0.000756741501390934,-0.0003812416107393801
1761140465079913000,11.074912841796875,-0.0007221517153084278,0.0015179789625108242,-0.0007443380309268832
1761140465089971700,11.0849716796875,-0.002144546015188098,0.010851293802261353,0.0030895487871021032
1761140465100031000,11.095031005859376,-0.0010659999679774046,0.006054697558283806,0.003902740078046918
1761140465110091000,11.105091064453125,-0.0010899684857577085,0.001213603187352419,-0.001948490971699357
1761140465120149800,11.115149658203125,0.0011563801672309637,-0.0015612486749887466,-0.002353094983845949
1761140465130209000,11.125208984375,-0.0006327314767986536,-0.0005527096800506115,-0.001453745411708951
1761140465140268800,11.135268798828125,0.0035364972427487373,-0.0024117184802889824,-0.000272900506388396
1761140465150327800,11.145327880859375,-0.0015410854248329997,-0.004125462844967842,-0.0028511066921055317
1761140465160386800,11.15538671875,0.00011157733388245106,-0.0019703658763319254,-0.0010014536092057824
1761140465170446800,11.16544677734375,0.00048495252849534154,-0.0014965895097702742,-0.00014737795572727919
1761140465180505900,11.175505859375,-0.0014838899951428175,-0.0013846613001078367,0.00046285431017167866
1761140465190564900,11.18556494140625,-0.0014721720945090055,-0.0002640034072101116,-0.002342519350349903
